time_s,gyro_p_rad_s,gyro_q_rad_s,gyro_r_rad_s,accel_x_m_s2,accel_y_m_s2,accel_z_m_s2
0.0,-0.002408044999453479,-0.002778488800022227,0.006253254599017497,-0.00430742493832769,0.020560181019377535,-9.84187706846131
0.02,-0.00032973167558521455,0.003744946640382878,0.00248199247956902,0.015256513742686134,-0.0590307815848643,-9.751521145717012
0.04,-0.002823070635498525,0.005521241467212599,-0.008179005856995651,0.005275513693895267,0.010798671544538938,-9.82554915172483
0.06,0.0006141365891694434,-0.003163902189747264,0.0028923004074052996,-0.05800341774550836,-0.048459178604913916,-9.838560760127443
0.08,0.006478718777918268,-0.000935688718577879,-0.009102878806658585,-0.008946808859966656,0.0427280989245393,-9.780340322096743
0.1,-0.0018655216337503152,-0.006711959074173073,0.0008579472028855378,-0.047937995967339275,-0.01270964315390725,-9.855667509456454
0.12,0.007073815148366584,0.00325467645110904,-0.0042963291469115105,0.08296474706910886,0.03264553422489187,-9.770894396317034
0.14,-0.00040163645526586085,-0.0007260681985157137,0.0017140382846006009,-0.004734962527613767,0.016938659615983474,-9.837398060428319
0.16,0.001914416517451786,5.0687607875578044e-05,-0.001089292107169926,-0.010336778040247532,-0.06219989032838446,-9.82876367901184
0.18,0.011023624602715817,-0.006030429056364318,0.0008382817437202923,-0.011078715572444105,0.031002315537739158,-9.746243894918262
0.2,-0.008188334739675528,-0.00048767251746779477,-0.0012279608572567764,-0.12181308240433882,0.038333031982703575,-9.827907316439923
0.22,0.0016319579903949191,-0.005300017870494725,-0.006996300620758107,0.036605349457016524,-0.06139534934543535,-9.760678372451881
0.24,-0.001315264260723276,-0.004048460008491795,-0.005283720232396828,0.009872496873962617,-0.032338484528030946,-9.81258232762821
0.26,0.004024926295061,0.0002558143435783546,-2.1732294026346688e-05,0.00038487495938750163,0.025978350263082747,-9.715111341888404
0.28,-0.010137022367754045,0.00014061506082134066,0.00637664487367009,-0.051625574444479516,-0.05066049825116738,-9.774915813428017
0.3,-0.0017293968739760357,-0.0075098538355948125,-0.006160010785791158,-0.07019229840198354,0.059444703867768206,-9.86838001109171
0.32,-0.0015392492593142798,-0.013226113387391563,-0.0006109435628063742,0.005981381998692702,0.001327531311329396,-9.826439751742901
0.34,7.090568126041778e-06,0.0025673227488343464,0.0031641322678898167,-0.06017903289203838,-0.0012559470648748586,-9.821609252781244
0.36,-0.0064492499887404174,-0.0015120478422521663,-0.0022281977949073846,0.0017635871198884074,-0.012649924515554925,-9.727677178310524
0.38,-0.0004514785380870797,-0.005112947659695819,0.003779117670985674,0.026633091924905646,0.13561679202936622,-9.795318466301632
0.4,-0.004574085380639171,-0.001914693474770323,0.002929334998703241,0.038987781173167965,0.141984675227301,-9.724897612885686
0.42,0.00711902285256134,-0.001721899801666352,-0.00853482724198858,-0.0641765110631012,-0.004621657380919943,-9.777850120420066
0.44,0.0015788605261638966,-0.007684228615072017,-2.5821436863316673e-05,0.03129171917701704,-0.09009927438773124,-9.842177286991257
0.46,-0.002620899482712865,-0.007262240147220134,0.004286293295803476,-0.055461244220254835,-0.02191966602831763,-9.856516702636906
0.48,0.0006482316220557553,0.000742188538244926,0.004015755367660978,0.018549899878360712,0.07519814860948236,-9.844570974311477
0.5,-0.00282603961803602,0.0030505820039321316,0.0077554609556559455,0.0073747520464842245,-0.0664388927707631,-9.730696536748447
0.52,-0.0022610945350526176,0.0004016561107539298,0.0039341380959367015,0.03654303456806667,0.010754185887279596,-9.912021260279008
0.54,-0.0017666666834095304,-0.002839174912079594,0.0038225972246986473,0.011974578788799716,-0.009766186332706829,-9.824093409984389
0.56,-0.0038373203570690275,0.0017320095372245008,-0.0014382540268339827,0.004234040767022316,-0.05036916616488645,-9.858913980501912
0.58,0.009864322079317332,0.005051656092590797,0.009512743705134996,0.007234789587004804,-0.021560719050919268,-9.79620937889524
0.6,0.00807574415519923,-0.0002795988503993351,0.0014191538349497756,-0.052659637562291785,0.0211767849952349,-9.823864449105141
0.62,-0.00042066914594584003,-0.002285194381022786,-0.0007316509934060502,-0.004112515035668291,0.05993845197185056,-9.849009859041237
0.64,-0.003142112577720309,-0.002784388879773821,0.002401846555366874,-0.009770028387891639,-0.05823878268032376,-9.809343515421286
0.66,-0.00666136278353466,0.015957605461032462,-0.0043392328389545085,-0.05069453602006844,0.0205845828899802,-9.775173961578624
0.68,0.006872086564443153,-0.0013885587687156949,-0.0030378118607637217,0.06265007169920217,-0.043977545082584425,-9.812512733530843
0.7000000000000001,0.0005318168785708335,-0.002466417013996014,0.009054072147553455,0.0383062636478724,0.025073357526817577,-9.808713668503692
0.72,0.00124046333617958,0.0009479497298438354,-0.001925916464944055,-0.049924527713438326,-0.03806468832775603,-9.825932676170405
0.74,-0.0032992503848387924,0.0002261542397039251,-0.0037438037078089655,0.02516958526554147,0.0066307311090072155,-9.953971980732362
0.76,-0.004583710472848666,-0.0041678654613413945,-0.0025716067210139523,-0.05061744823102624,0.055514591659270064,-9.772679454389209
0.78,-0.0014909815432015234,0.006073913618372009,-0.0002355009880370348,-0.009157322035124668,-0.08370782415479479,-9.79029102574153
0.8,-0.0021986806424585726,0.007850596374204644,-0.004721986266674716,0.06663650657977241,-0.011074958900174202,-9.86549428974761
0.8200000000000001,0.0013732425089224302,0.006519630578120158,-0.0017129181264551776,-0.0034512255539245664,-0.008939061419502181,-9.802967481462641
0.84,-0.0011653486411070018,-0.0013251875836930748,-0.00025292106479742353,-0.08570369396295256,-0.04335174102595975,-9.761034243384445
0.86,0.003332718636555643,-0.004182094371932747,0.008176551156755717,-0.06788059222634964,-0.004208282625590604,-9.858637851253045
0.88,0.002086864262885283,-0.007001068004569403,-0.006407934060313864,0.03456213176849698,0.06516142243742822,-9.910013820007501
0.9,0.0009539460060095635,0.006093327289558266,-0.005621664347812565,-0.02705524241647746,0.045870507618959507,-9.921162512108605
0.92,-0.0031845271310019917,0.006076756185269166,-0.002524204113228696,-0.02893456511056859,0.008232501133609184,-9.814448801572695
0.9400000000000001,-0.0019483222961351025,0.007058880338919533,-0.001973336708942887,-0.020406159675189734,-0.005681840644332175,-9.780320057405975
0.96,-0.010633729159881214,-0.0009695333284632872,0.007710393125654587,-0.04525749762794945,0.006452985346233732,-9.80189222401385
0.98,-0.0007973604882392093,-0.003362752476653174,0.005870438781009607,-0.08721224778269296,0.041322130413861236,-9.800990242903184
1.0,0.01046206670688132,0.0030579690151351802,0.005045316390652596,-0.05423155510143804,0.04951283067278378,-9.854596099660833
1.02,-0.00039248676731640496,-8.265119418728183e-05,-0.0005259924744382298,-0.08368842668352527,0.022495108291102586,-9.732109078641667
1.04,-0.005138760184936316,-0.006138559420406395,0.0023101710182550947,0.005378454435764092,-0.011804442094841177,-9.8120373138268
1.06,0.00020630301631765317,-0.0032226523417396035,-0.0014956736573261181,0.02858674994165715,0.03757324147719306,-9.772909491048878
1.08,-0.004781229144215275,0.0010604901043176046,0.0003957948331241192,0.02369270322476369,0.11213422003070564,-9.839424919423735
1.1,-0.0035841014637971857,0.008520639419502712,-0.0032320401873876655,0.06448066017866332,-0.012898387586540234,-9.841966146325063
1.12,0.002609205826653973,0.0071681819083687405,-0.004483663762380488,0.022254948290063567,0.03050333333845793,-9.829359937825684
1.1400000000000001,-0.006166740283852979,-0.003370427615377315,-0.0030313467674407293,-0.026041610925993205,-0.028285785918529472,-9.861200540286939
1.16,-0.00011211939044294222,-0.003969467360348499,-0.009012358852203587,0.011157071867650739,-0.04559860292674315,-9.782025600526017
1.18,0.003269172794835619,0.00020068760904451814,-0.005412167376169742,-0.017734494674429717,-0.04408198665738456,-9.827780503035871
1.2,0.002379425094014743,0.0029163497713686898,-0.0024747911147764484,-0.03839581422985885,-0.04369447895542317,-9.761968470941781
1.22,-0.007531128430163276,-0.001569367363559708,0.00907293928329668,-0.022253465068774552,-0.057113560686358915,-9.835064921697235
1.24,-0.004649890591240547,0.0058542033418009795,-0.011784762311324202,-0.01314104770905557,-0.010551937058499203,-9.76254306957937
1.26,0.00857367018272996,0.0008442903211144407,0.004399290269126549,-0.0844817673771216,-0.008830012249453163,-9.83258502391965
1.28,0.0036666480337704485,-0.0013887864021208552,0.003229504482574879,-0.15600279662893413,0.019289391301806135,-9.819411459308965
1.3,-0.0019146819580253783,0.00018128270107703616,0.006197540373619871,0.049138073805226626,-0.017593055350049392,-9.787519248981859
1.32,0.0002418632036317305,0.005529598044542513,-0.0026585807803715007,-0.044744086703406745,-0.033928215040636416,-9.830681932035956
1.34,0.0056621502549788864,0.004362752597861708,-0.0010210061590312496,0.051357718572992345,-0.004210583838176696,-9.872453952209813
1.36,-0.0032652465592385017,-0.0023823920511173093,0.005776361657593805,0.03593280234698243,-0.007926342574978205,-9.77853734213298
1.3800000000000001,0.0025792636666317438,-0.005872936908583619,-0.00562939890374812,-0.020331113384826564,-0.025428831056775892,-9.762814183452972
1.4000000000000001,-0.0023874728814859605,-0.0015480609085381939,-0.006879113330874431,0.015419798227876372,0.05260885550444369,-9.861729785317387
1.42,-0.0005149601430692542,0.002527299548487924,0.0017177442652311712,0.04810797765287304,0.10076284614769622,-9.802404080902233
1.44,-0.01137767839188168,-0.0032337596333632153,-0.007884380875910394,-0.07751789203964178,0.024924193155168743,-9.936030729565537
1.46,-0.007365700781310849,0.0011663720221404843,-0.005114544412151991,-0.10530357509460973,0.02238056190027111,-9.835915696803912
1.48,0.0013685286645786475,0.0024906556499353963,-0.001548907474025211,0.06495133159834153,-0.07008553232687915,-9.755409477360912
1.5,0.00035856908110949,-0.0033203078411785,-0.003574781857026896,0.06619228538136929,-0.10003123589970773,-9.843122766606689
1.52,0.00470117082250275,-0.004798747565501992,-0.0008242143671525018,0.042861409313302165,0.06458370482660727,-9.78491172776726
1.54,0.006587652421911953,0.013536249257439277,-0.0020811855285868767,-0.005186960944370034,-0.05165570708759636,-9.830718916908241
1.56,-0.003429000841612844,-0.0010693820754165998,0.0032304842187774914,-0.006675950103063682,-0.028560860115401012,-9.821049160374676
1.58,-0.0036718034361051368,-0.002738756619310414,-0.010105762503056226,0.007470184610248916,-0.056962227539536926,-9.747824172351915
1.6,0.0020779189383938975,0.0023534296983695434,-0.003804658625194844,0.029926191047765918,-0.01397193627632122,-9.873658596056297
1.62,-0.0003975671058815769,0.00011860308336159782,0.009062223401002817,-0.04061498066519777,-0.04372896794893953,-9.850451032806664
1.6400000000000001,0.0078404679087625,0.004257614772273852,0.003813572331044105,-0.003533018231770601,-0.04501196649170234,-9.80087774757374
1.6600000000000001,0.005725699611055183,0.010499500515539158,-0.003055442528310944,0.010580038781207377,-0.04918049561846957,-9.805240542728475
1.68,-0.0047274211095364015,-0.008766842029752378,0.0020442328944960536,0.053322625493369726,-0.07146772117279826,-9.779027819029583
1.7,0.0016890921797526165,-0.0027350476437087174,-0.008347661744564708,-0.0007580258856810391,-0.03538775633800339,-9.78342710882461
1.72,0.0070159808584059425,-0.0017516664753146945,-0.005070018291249629,0.012666040591418737,0.08422703106741608,-9.775651565874242
1.74,0.002204912051920149,-0.002778312363899188,0.00026707939210644956,0.007551999481113818,0.09208791312246922,-9.801466070479812
1.76,0.005959618576350169,0.01061688522422819,-0.0028063344791714804,-0.02670595690123568,-0.0001234229695818851,-9.716499697577056
1.78,0.002302688559732759,-0.0033185661781353153,0.00885399485705219,0.008186838909350035,-0.027205788948610105,-9.81571072081122
1.8,-0.009300805741102246,0.009297096510844835,-0.004959717791291516,0.031802831293456756,0.02972099138559846,-9.755005724848921
1.82,0.0031843037043020658,-0.00909943832403687,0.0019059577063566932,-0.017085818644110812,-0.03349516721633305,-9.894031211932687
1.84,-0.006405135738656463,0.005239449158366348,-0.011506243998283821,0.05883403192913755,-0.09692409957301051,-9.748137509076427
1.86,-0.00042154451693155826,0.0023744206286777526,-0.00022221697145791844,-0.04722369438170329,0.027948998252424553,-9.81915366894132
1.8800000000000001,-0.009221119301566064,0.002199220701023838,-0.0022163649739512974,-0.030447882800554684,0.0055263958120002595,-9.794991247859127
1.9000000000000001,-0.0009828047639278783,0.0023513654949682103,0.0002713786010772848,0.060922967597764145,0.003289087760392495,-9.79925627604034
1.92,-0.0038766840934172236,-0.006588396279674093,-0.0013963374212638752,0.022971921568135933,0.006624381860843434,-9.81087627592597
1.94,0.0012652285950064826,0.010439985071294929,-0.0044843943521139336,0.0034175537620894122,-0.0649056970730455,-9.826058035412608
1.96,-0.010809860407783334,-0.002609746005882979,-0.005533932942915368,-0.06856426657982594,-0.05027633130573002,-9.856350443993241
1.98,-0.00765736920309455,-0.010451124527348648,0.0029530104010259384,-0.05346257616016662,-0.011869711437424749,-9.877982226187962
2.0,-0.002168754611158169,-0.005348390511933038,0.005123822044376085,0.04179901583349972,-0.002886504738992889,-9.818924872950205
2.02,-0.005156521880660245,0.003728471554653984,-0.0013954108862133541,-0.0452499637335761,0.001768930594452618,-9.862621215023507
2.04,-0.0012110511372972605,0.0004918175060731528,-0.008916975356191825,0.03495378596611146,0.09045665384408301,-9.810581728709922
2.06,0.0013917144778188772,0.0016157285814185909,-0.0016321326142679665,0.0038971788980579703,-0.0559505415664492,-9.719712669716088
2.08,-0.006745270750355958,0.0019427917709432163,0.0027898666033710994,-0.04706477414447732,0.049020524292441275,-9.685731775297924
2.1,0.0006201232002216137,0.007710172147764078,-0.0026214824323613885,-0.01108544804706265,0.0321482880984773,-9.84742735218508
2.12,0.0006110074873714715,0.0011469009668503406,0.002138389232809731,0.07435022988078112,-0.07985845047608277,-9.848198247574713
2.14,0.008434057915654639,0.00426363888161112,0.007705504790823062,0.01662976574064728,-0.07816035431802644,-9.878773091719252
2.16,0.0018130717125144475,0.004044576234156558,0.007239103340297893,-0.07136628701744784,-0.049032373745123176,-9.806555267373929
2.18,0.0029379577243316625,-0.0014120922682536816,0.0016517915849462246,0.06077279017174896,0.008175699226259707,-9.897939855157276
2.2,-0.007706697710094212,0.003291370148040023,-0.0029537626685262825,0.0705300574621202,0.015490651203546492,-9.766077941117628
2.22,-0.0027879942826474447,-0.0026386813819790837,0.0013520950257313897,0.02128666253643631,-0.03831560859371972,-9.782162130895973
2.24,-0.007764479421008032,-0.0016091725733714316,0.0012920873579836162,0.035786619497232906,-0.051704227609258115,-9.836972666826943
2.2600000000000002,-0.01092543123211006,0.005194888593149628,0.004938100634716341,0.0698669096985618,0.012241826328607278,-9.830493171334053
2.2800000000000002,0.0007961747478888692,-0.0014740634709515116,0.0012594700578818544,-0.03580097221207362,0.03622976561441455,-9.794084384535655
2.3000000000000003,0.007727302186908059,0.0042353481475917035,-0.003141132272503051,-0.04999376252258889,0.025083552041167207,-9.76868726352936
2.32,-0.005280421191071708,-0.0035202796340042673,0.007876954319446653,-0.0854650512102082,0.02256367316909348,-9.794388753127214
2.34,-0.002922014991496787,0.003615048672467571,-0.008396551396730144,-0.04633753146364994,0.046949664064020354,-9.774043066332814
2.36,-0.004379807526195499,0.008846219047243675,0.0014362883922582551,-0.01282887302118192,0.10658585837509134,-9.814673053229892
2.38,7.293739083400791e-05,-0.003458211917756357,0.0013695557247365906,0.06119814818998979,-0.00740312884379252,-9.723271513150193
2.4,-0.006308611652238713,-0.0019718522002774214,-0.002691324768226025,0.03173281361066934,-0.010163027596611064,-9.841921242500757
2.42,-0.004742389455660759,0.00264884418274633,0.0017550339534660702,0.0757453771548567,-0.006095498583072381,-9.816132523097442
2.44,0.007202908042211612,0.003310331708161307,-0.0040634320933400124,0.004251154120013719,0.05608450217636843,-9.85511759392777
2.46,0.003697104894817613,-0.0023448038857898377,-0.011025667287506764,-0.1250887205532634,-0.0066416912124486645,-9.87065821053877
2.48,-0.0038670880937583937,-0.0035394057869464223,-0.005865206237158235,0.11154250419670851,-0.07257088078541062,-9.786581969888195
2.5,0.005342832941055978,-0.004560446939989125,0.002620834777856986,-0.07813824581788964,0.05655029696667355,-9.82013124267975
2.52,0.009196080149503141,-0.0005137228369597557,0.0037372417179718956,0.017516118748823386,0.02413550628296242,-9.864347825966565
2.54,0.0024407014630920395,-0.004393790974438741,0.0004157338066927743,-0.12685174879663083,-0.021349376040309342,-9.799573819037247
2.56,-0.01567917192191477,0.002801713216117556,-0.00688832704601877,-0.01837887643893924,0.024896294089714083,-9.713361479990382
2.58,-0.00413225482914696,0.00949940142224019,-0.003984268591466459,0.03370799734678256,0.02282225829453941,-9.79763926995507
2.6,-0.005458423157650672,-0.010403845076866926,0.007192183245802436,-0.021106813713265376,0.0705177954775692,-9.91161792453718
2.62,0.0015238873497328044,0.005470542485891706,-0.0005086816764999619,0.0301755294645375,0.025774663994220737,-9.81648891991898
2.64,-0.004322730019945822,-0.003552824362711831,-0.0065023609353050795,-0.031691419553648174,0.018129666408947486,-9.74641441132108
2.66,-0.00511601028049359,0.0035682223833041022,0.0034253945234901397,-0.06176941257345692,-0.01439526856213217,-9.88378348247409
2.68,0.002250961318259299,-0.0009953315367774952,0.0043475538817323274,0.017546297254565663,-0.017392351696927745,-9.729127586526573
2.7,0.005897883068092069,-0.00837619780059963,0.000988695203661229,0.0028096176320114904,0.07753375948250196,-9.867396265048454
2.72,-0.0008507694335636891,-0.0011180669135277916,0.003903099998118654,-0.003670945375313318,0.07671529213802197,-9.781961051604268
2.74,0.007590818238514664,-0.004564017727664347,0.0008198637498845465,-0.050528429612114734,0.026029458288820057,-9.833570448427436
2.7600000000000002,0.002804768137478958,0.01224560113767606,0.00010113359400261266,-0.01666835136102315,0.037252930116518666,-9.844263680977864
2.7800000000000002,-0.002372657630266579,-0.0019944281041268676,-0.007569905732422809,-0.05993033850400223,0.0016288575983303922,-9.897807869657983
2.8000000000000003,0.0011228842594038144,0.0014267610970841679,0.0049991385349331,-0.09210747701431182,-0.057363389938318216,-9.901598391384288
2.82,-0.00825278888327242,-0.004282791634805976,0.001750313464031917,0.006245176383491894,-0.12136873687645876,-9.83464533017846
2.84,-0.0006355685031853947,0.0005305071994826246,0.0025214304515372827,-0.0478535686297901,-0.04634468149866564,-9.880718657027337
2.86,0.0032674063203430672,-0.0006450785312861601,-0.001940223427453155,-0.006066623863949718,0.04890277067333784,-9.867362704977646
2.88,-0.005364096225769444,0.005003571253733731,-0.0034837961644318604,0.04121280122523539,0.005752036032415168,-9.781740167071558
2.9,-0.006759948858175321,-0.007149932443144545,-0.0034988466804702495,0.11148017546139531,-0.009135772630599979,-9.828677334841366
2.92,0.007132415813779738,0.003142736787218383,-0.0033114952556066502,-0.08466004289443463,-0.011163995707489376,-9.797851879002646
2.94,-0.004757187442977177,0.01203398553599063,-0.0012255525029960395,0.03483866105018476,0.07753639050904362,-9.78293776347286
2.96,2.665997142223658e-06,-0.0029937031868347793,0.009964129862398018,0.039208930880463136,-0.08409795588754457,-9.814029240486594
2.98,-0.0020710458618727096,-0.002472550943895552,0.003484828344452351,0.036344503517415055,0.004326225962858342,-9.802416381442239
3.0,-0.0011172695997497778,0.013602632530794278,0.0007728442551612699,0.05575084648551637,0.09102951445417122,-9.821029548547095
3.02,0.00043675851240031124,-6.806130112671084e-05,-0.0020665686377361074,0.00981031993152889,0.026643278169091785,-9.899941611644113
3.04,-0.0018905963770202018,-0.00022515110172304658,-0.005748679655974282,0.02766322230057521,-0.015393940613917296,-9.693820752322923
3.06,0.0019320063195970081,0.003123356217095476,-0.0032699440090121204,0.04842190429457874,0.02742680099031397,-9.776171722406529
3.08,0.005426048373114199,0.0041840140840229975,0.012754626123925767,-0.03552323575985993,0.008338996066784198,-9.856938653614847
3.1,-0.008531984517702481,-0.0014425833701335934,0.004672151660901894,-0.03474687047377193,-0.013661266651762115,-9.781147223972283
3.12,-0.005786995557444694,-0.004301720901547116,0.0027046730645875878,0.038594359771171344,0.0136343575841589,-9.830971112386454
3.14,0.005762014839709265,0.004620627625367882,0.000810808379916615,0.05985762761213066,0.05113617429960543,-9.815303071536551
3.16,0.004116828046887091,-0.010165903324365573,-0.004019415107751589,-0.04976757654142332,0.04194643887390301,-9.811957374097686
3.18,-0.006209708294565585,-0.0028460572877979963,-0.00014628901921891484,0.022577611354719213,0.045737943307577474,-9.851503627520493
3.2,-0.00017979814875177018,-0.002100687621989723,-0.004785364004974109,0.0022417619442757918,0.028938991206777162,-9.838041517859345
3.22,0.001701819113645973,-0.005535018881934703,0.0008987776486815677,0.034335786303340526,0.0003775399812248012,-9.881534793594199
3.24,-0.007535017278465549,-0.0002998832362545324,-0.0030304544101157544,0.01951117445406978,-0.04349668208843909,-9.8171413529721
3.2600000000000002,0.0031589473384724593,-0.002438646283345605,0.0025784317350700816,0.00729686927361482,0.03634527984205275,-9.758985771316683
3.2800000000000002,0.0023356569782215426,-0.0016586948538688377,0.004257738754704968,0.03811308549558539,-0.06762759974749037,-9.837112847851685
3.3000000000000003,-0.0017623216397780223,0.003295588868635299,0.002145371278954975,-0.01174180527752413,0.050285136884550136,-9.776921936818287
3.3200000000000003,0.008153320746408357,0.001582117707225653,-0.0021248838031288995,-0.004030948699397088,0.014595190449827312,-9.81967501660581
3.34,-0.0002634889684575148,-0.000803605037237036,-0.006824640994357536,-0.042087453267611805,0.08134671133682148,-9.79516663060168
3.36,0.003323546783444999,0.0012948832265397376,0.0026866375199527375,0.006638095702832015,-0.00471338986970049,-9.747245338460056
3.38,0.006235546798088236,0.0009023961235379043,-0.005473396388877489,-0.03516840681718219,0.018210929153446364,-9.860795003899918
3.4,-0.0025829516156920846,0.005268059052939334,-0.00020438357290430083,-0.021413279366514323,0.03198084971694996,-9.828511413236866
3.42,-0.0006727619579288739,0.002309834198931515,-0.004051453817504311,0.06872146391690992,0.09614066858867559,-9.80655560260238
3.44,0.0008685493250777625,0.0077508671600579095,-0.0008485208878192729,-0.011064400026843139,0.025240064920984646,-9.880715016732752
3.46,-0.000590817256231795,0.004534538511757793,-0.004347997030000069,-0.04924707491356832,-0.04122319983024,-9.76303341707251
3.48,0.0023132083205446626,0.007226665945193229,-0.0011871425718008258,0.028555067824785643,-0.13073249905575376,-9.83259953520647
3.5,-0.00510958485708416,0.0006702910009590021,-0.0006464351029883417,0.036869263618252206,-0.12136432139659148,-9.797044069442745
3.52,0.00581434191719258,-0.009130520453245595,-0.002210819757929694,0.0933320744797946,-0.04036309111734728,-9.884821376940815
3.54,-0.00282093752982755,0.0018171379370532678,-0.005078834956073602,0.02281572619084527,0.000954124174294867,-9.891423689385984
3.56,-0.00861301802675547,0.01483153862995603,0.004411152039190267,-0.011795626931791266,-0.05143144569277383,-9.863121081305723
3.58,-0.0007856100243374169,0.008124729756179125,0.004786856476154002,0.02871954164676939,-0.003897153933160041,-9.753663194429615
3.6,0.0061010468805031476,0.0009380990101587797,0.0058296371005459955,-0.052414956714816455,0.019646212172194547,-9.836875969545163
3.62,-0.01009607948071738,-0.007309324187581705,0.00429096152302836,-0.09196898859009021,0.05930527010015085,-9.788498182482124
3.64,0.005559082264983428,-0.0019390972155057316,0.01234054568548303,-0.06267671508307633,0.017005077886647037,-9.80547132317997
3.66,-0.008270869634001823,-0.0026293945708968838,-0.0059114472521119635,-0.030880583975276196,-0.0005645638086449126,-9.860181998284416
3.68,-0.00034115576871110535,-9.678387402915271e-05,-0.003259694093820058,0.04224121336304923,-0.031462118270180604,-9.767423545991912
3.7,0.002700978217531037,0.0022955982338136896,0.003918913789112439,-0.005179317595159271,-0.029258598926395374,-9.823897562380685
3.72,-0.0018084542992400832,0.005819053932438262,-0.001997493453199858,0.025295466366747607,-0.030552416236691828,-9.825138617982995
3.74,0.010778867611439208,-0.008264359128647408,-0.008324095738891969,-0.024293340771465267,-0.016411920772627122,-9.761984616434159
3.7600000000000002,0.0031999599199889774,-0.004487099495532271,0.0019149448428151614,0.1023424912484031,0.035169119652125186,-9.756329012211127
3.7800000000000002,0.0004011780815577269,-0.000944382720563522,-0.0016391738768675862,0.10732728745594076,0.018258263246683913,-9.744170551661874
3.8000000000000003,5.098492230893447e-05,0.003664665993841383,-0.007203426292948346,0.04989355878756124,-0.064623944489728,-9.704080363013835
3.8200000000000003,-0.0014966285013353988,0.004695871196752545,0.009511152359921395,-0.027709710026513668,0.04089215065730375,-9.786380287396607
3.84,0.006914288078067924,0.006098474918403313,-0.0026374930217477176,0.02541718279588124,0.009972051521404268,-9.823134133168056
3.86,0.0023373105521976066,0.004966965917784521,0.0017267549949695077,-0.032034229631731075,0.021911743552817733,-9.83389871381702
3.88,-0.0045934248568026085,0.006576355790097459,0.0036825543835285507,-0.03516972321171649,-0.032395919714961544,-9.788607934357245
3.9,0.007953970493767115,-0.0013450636706040225,-0.0014097647790905449,-0.0030687268218717333,-0.008115496218623931,-9.84582792271176
3.92,-0.004552278514784254,-0.0037587711808272457,0.000498064873984929,0.01514743000186693,-0.005790316003807027,-9.703412428646194
3.94,0.0008902644951495434,0.0013823929646858927,-0.0079085642125597,0.003250164133236432,0.0013628759661822674,-9.761671357477315
3.96,0.00626435182475236,0.009557793982652354,-0.00017613859240303646,0.003961367165235648,-0.014304049063258717,-9.749803518527916
3.98,-0.004360963759764386,0.010616457550838907,0.0034838183529704203,0.008001317049053956,-0.03374431032150003,-9.842364688352086
4.0,-0.004241700386307944,0.00042533758615717295,-0.003536627168466084,-0.02193996234927443,0.05771290330286736,-9.749495443348831
4.0200000000000005,-0.002185066166425079,0.0019539134378955816,0.0021611250059022946,0.1672336228239802,0.08763904831719357,-9.829861239344005
4.04,-0.005161906215028066,-0.003298782301560505,0.004590183958684446,0.06362835668164829,-0.1391078163759619,-9.877667681075325
4.0600000000000005,0.004244331566536662,-0.0020134430092414134,0.007797845891133364,-0.00759020138609915,0.047307738055528355,-9.73126847195535
4.08,0.0014389619007538776,0.006135170871411881,-0.0017226708219369236,-0.0024359634069508105,-0.031060563410900684,-9.839739455848974
4.1,-0.003261242725353275,-0.0054506387741010956,0.0018131697395369162,-0.011037457449904267,0.021370038894347097,-9.859399209473642
4.12,0.0045497256260291045,0.006940901845842779,-0.00575374349566655,0.04845137112345831,-0.11136403570109149,-9.813785895805255
4.14,7.2398272046527716e-06,-0.001479136891819268,0.008823479683161132,0.040791904546202004,-0.07534486335606731,-9.844962512522798
4.16,0.00010547171823107788,-0.008786470096979587,-0.007838420494237905,0.05971581245425515,0.0371696137968848,-9.69623042469145
4.18,0.0028943013297603837,0.005498380866756335,-0.012588563763362948,-0.03141666228936842,0.016993750265588345,-9.788906136522332
4.2,0.004609381308171544,0.003327159456487377,0.011344474770078132,-0.10178699904414651,0.07462158000378931,-9.821332651919276
4.22,-0.002944176565008873,-0.005657463513828363,0.0004691282750837426,-0.024514923825417076,0.007968370745623123,-9.783835198838984
4.24,0.003663186030082557,0.009517534151823628,0.002788017064972027,0.06002638331251952,-0.014180640128521372,-9.803463798000587
4.26,0.0015949787326452203,0.006931109713301103,-0.013544306367270918,0.06390769722031213,0.013990942802769633,-9.78645865311809
4.28,0.0042551506671750765,0.0031567717279322584,-0.0009241391727665454,-0.03262251113915309,0.010593026966801767,-9.785457841514663
4.3,-0.009475190240448584,0.001967059103294954,9.304943386081247e-05,0.0871469714105646,-0.09599047036990008,-9.849443390745758
4.32,0.00926753192316046,0.0004972989540250383,0.0041718049781529895,-0.11052950067851974,0.019274540680934628,-9.780444599786188
4.34,-0.006208228691624096,-0.004069962111922,-0.0004608412832454955,-0.000417926703043087,0.09054316866296719,-9.866932848436562
4.36,0.008696489368598102,-0.0022531129211431963,0.004049666521233606,-0.017016617418116338,0.05682860766487266,-9.887338320990688
4.38,0.002174087748419104,-0.0012255834087754186,0.001672867065759086,0.011781039637110946,0.018966602707490565,-9.7375431786258
4.4,0.004083207217195768,0.0013385221278671706,-0.0019932008429179703,-0.07724364777255907,-0.033338414101438424,-9.744633923881649
4.42,0.010537633003674335,0.0006046958469172147,-0.0020445372880732765,-0.00837629389181925,-0.003463032476329204,-9.815272416044241
4.44,-0.003472998750522035,-0.001958115339811759,-0.002121074683043417,-0.006593957242307553,0.0345627784569525,-9.791956456585183
4.46,-0.002014854744134727,0.0020982967839836358,-0.0020449208321569653,0.04995956015658876,0.08408526493601752,-9.815370713119137
4.48,0.004966979464084315,-0.00401917219930621,-0.008801263325285278,-0.04931141826612172,-0.016849691862567368,-9.745267368461175
4.5,0.010481032051470251,-0.00030323810178700927,0.0024396081490351998,0.03976998419619209,0.0008478643811812308,-9.66164740754506
4.5200000000000005,0.0028178228998837337,0.008963033467459518,-0.0007674844646286189,0.09056276359135337,0.05127061849264506,-9.720384250937265
4.54,-0.00855148834249347,0.006037780210571196,-0.0019059677702718525,0.02997816968284449,-0.05586711780619691,-9.876919428352263
4.5600000000000005,-0.002891001960108309,0.009554783852878106,0.006029832364665381,-0.025958644967769357,-0.025307907654713302,-9.75565568804463
4.58,0.0011669471864911493,-0.0008960914444492613,-0.004569587735764458,0.022032800711906414,-0.00038130033227684666,-9.807117738585017
4.6000000000000005,0.0022282628945635686,-0.002555888709346362,0.002379020602727921,-0.07253448411673107,-0.0088781304197311,-9.841615107229398
4.62,-0.006297188072395352,0.00042330748958412275,-0.004468977808354615,0.056175752972130566,-0.00043409856645238495,-9.730882339386865
4.64,-0.002791019493490578,0.003234012787331359,0.00028094194946838905,-0.015714403906229534,0.016901327077751833,-9.722737269835788
4.66,0.006946012970375514,-0.007146029405161479,-0.0005966233646136493,0.016266421869981118,0.005233211820042584,-9.790281878890065
4.68,0.004372694477040333,0.007668059163765657,-0.002533713978168142,-0.04008188753518278,-0.02270441804069409,-9.928471692072193
4.7,0.002016946131863344,0.006200254246035639,-0.007392587154327297,0.034143852705161064,-0.029813835193903977,-9.803229626516051
4.72,-0.0033088482830325966,0.001566760683389878,-0.004670386703463834,-0.002597994407447901,0.074055697785247,-9.761952369352915
4.74,0.00016501535664597975,0.013260581614538292,0.002064393738064138,-0.02459165538419634,0.03647053569524649,-9.695779243118656
4.76,0.0015687287780119428,-0.005736838718303679,-0.00634294630489577,-0.019585810065148437,0.07822000166391059,-9.785486984842812
4.78,0.007637539194156141,0.0021364603211953665,-0.002380333560094024,0.005604829299296708,0.014876264811412713,-9.783655742164317
4.8,-0.001033427719340375,-0.005158429263437063,0.0009335914711848286,-0.08999364171478554,-0.01177601289724166,-9.84281894350261
4.82,-0.0028222783153049385,0.003519576601225473,0.0004480026381878288,-0.03716053750845138,0.009107405588307365,-9.854547818669804
4.84,0.004101342132822565,0.00213394778891287,0.00426321923361523,0.02525811139786287,-0.06804321842316306,-9.85680678505311
4.86,-0.0006296718168578295,0.000516693624583191,0.0058794016617379034,0.023344222688399606,0.010889535386387091,-9.883124683794849
4.88,-0.001885391520138592,0.0018211359219056631,-0.007305376259118755,0.03121001001186799,0.0462318655912325,-9.803540987184803
4.9,-0.00284039389721022,0.0009315848783790799,0.005471883094418336,-0.041910920856536214,-0.03775986944219698,-9.917510730719396
4.92,0.009080595004983509,-0.003971954831869745,0.002060384533741108,0.030075199621993856,-0.0629937632669052,-9.83290653911998
4.94,-0.001279034629346235,-0.003368228281935718,-0.003347855664095832,-0.034841372872369596,-0.0038295426774579986,-9.731941136002996
4.96,-0.0012902945497057798,-0.0007958794156618386,-0.000722041837650652,-0.03307864906357066,-0.010511841865223881,-9.854012901755954
4.98,-0.005090193807658271,-0.0013584534428381998,-0.0017611651676907125,0.0477381351105653,-0.02600399682462794,-9.741991679043213
5.0,-0.0010726970861024145,0.00023572635648053252,-0.0025464074124116488,-0.057385206535113836,-0.003825335624037163,-9.789771699993523
5.0200000000000005,-0.002507753932123293,-0.001323548384975,0.007422191898169692,0.03916021520874393,0.07619335103989601,-9.871239008011512
5.04,0.0028208166611609214,-0.004323639463974145,-0.0028810751880252723,-0.04969014437000659,0.014187776305662807,-9.78016332807985
5.0600000000000005,-0.007817515184255844,0.0036903761541880894,0.004659116696406668,-0.015522831752969505,0.002080054355700935,-9.851832615166224
5.08,0.00043895180208949745,0.009902573756898384,-0.0005836936644527719,0.013431234255939471,-0.0662136258852704,-9.74926033911587
5.1000000000000005,-0.0026196698961456805,0.012992317929030151,0.009035615563286317,-0.005229744100027306,0.017261737622769387,-9.891903595416398
5.12,-0.004367598489240647,0.0014023760745126678,-0.005987915861974208,-0.059637465728913666,0.016174039277774454,-9.769931204386932
5.14,0.005748617251898456,0.006654152823044705,0.0002486474617078069,-0.029382943317617923,-0.022885195408502354,-9.790400773937016
5.16,-0.0010146107776069057,0.002096259375300501,-0.0032170319861232516,-0.0016346734223052037,0.05647329755508024,-9.943274661109294
5.18,0.002118659707993573,0.0047976148918426305,0.0066850829943394035,0.027302883586302975,0.04095564101834723,-9.771059092770136
5.2,0.004254984146812013,-0.004291511024539377,0.0006175663406484592,0.04525903442077869,0.02424902927228766,-9.700521035566242
5.22,-0.0038016557274414596,-0.002167050165834512,-0.0028857663220457305,-0.03246490410341964,-0.093256591393148,-9.83004052283108
5.24,0.00037219950731606544,-0.0008069057073826499,0.0014487082322921054,-0.005109647827651093,-0.0018855814361263018,-9.838589003264179
5.26,-0.004515040139662853,-0.0022179957677770203,0.004642254950906873,0.03655966950472416,0.0113992051186535,-9.94978471918508
5.28,-0.002969591927989058,-0.00035743163640600934,-0.010034999617583733,0.022376558601333026,-0.05908319834462692,-9.866255520398633
5.3,0.006245026245502652,0.0019169883120683936,-0.0041451102730338685,-0.004304998444022494,0.09417853769819196,-9.765568779113828
5.32,0.0016155956906188612,0.00933541336582426,-0.0030399699771535916,-0.02985706444718226,-0.07745382084105688,-9.808456292473508
5.34,-0.013102407484653012,-0.0013071119899988402,0.004859728592505372,-0.017548349404824314,0.06732134671840823,-9.789798752672414
5.36,-0.0064848022445380005,-0.0007303140860916483,0.005193396927280054,0.007744367834918745,-0.03196583427740025,-9.757894191600688
5.38,-0.0015557504729287709,-0.0015450535787080513,0.0007830855337644573,0.07933742712709334,-0.043474365856140854,-9.836782504533078
5.4,0.008083334042664717,0.007030036764930599,-0.0004159742562539744,0.09362513037747373,-0.007134781080791294,-9.802890471095237
5.42,-0.00012758237455841542,0.0030103023804783162,-0.002568257191692214,0.012162020498288639,0.026383000384252397,-9.786982713308253
5.44,0.005517882190426372,0.004041432189291109,0.0042995590577271725,0.023511517600819057,-0.05050181993631064,-9.752494301758862
5.46,0.007021975546729242,-0.0015277762941742917,-0.003795748426092059,0.022219757027287308,-0.0654944534645555,-9.84432544124169
5.48,0.0025538351100123763,0.007853063845222785,-0.00012846825880845702,0.04894644227319334,0.07513730172543011,-9.831554412982348
5.5,-0.006285553322880994,-0.005255009912945552,0.0009617193320167931,-0.10711243743160406,-0.06819462271128979,-9.743720544721892
5.5200000000000005,0.0008838938997703629,-0.002709582143856515,0.0014334372766758295,0.0036182187708440126,0.03438137258548353,-9.868747118883725
5.54,0.010938599375433719,0.011112906491286932,-0.0028068620099310974,0.0049169108115863815,-0.049613761868821056,-9.81285699179702
5.5600000000000005,-0.00039355181240008727,-0.006257159163613917,0.002044659580529727,0.07214287246511664,0.039090234169069614,-9.715719083905034
5.58,0.014554409322523935,0.004856017958000027,-0.010509934046753414,-0.022435902352037098,0.009234261556508567,-9.855848476681212
5.6000000000000005,0.004651412676527932,-0.010022981187085833,0.014371444919867183,-0.027502161692982544,-0.01691714253825467,-9.82560637067783
5.62,-0.0012657580252260767,-0.0033997192447062638,0.00011402361364865727,-0.04702719845395816,0.002700139800256194,-9.780014152051198
5.64,0.0011707205789976102,0.002435438357177351,0.009038041360280677,-0.005327970192648136,0.06018370522218067,-9.7540975085202
5.66,0.0009222382887162263,0.005310518062420593,-0.004009629406873279,-0.12327684711450507,-0.009955515509713155,-9.767574878869612
5.68,0.004458268537836198,0.0026170509713449312,0.0076767098867834265,-0.03861647442021077,-0.019403221959657074,-9.819917799085124
5.7,0.0019462594552430224,-0.008092782317154998,0.0003483181586790376,-0.00684354454693295,-0.04702516609334831,-9.784526196358907
5.72,-0.0027697863396734766,0.0036864441331573568,0.003977669376539643,0.04242762344836157,0.07815119563726373,-9.877908956894036
5.74,0.0057376198728176855,-0.0035993838244633776,0.0049212136233949145,-0.02447027970977024,0.019959307826178056,-9.785259087471612
5.76,-0.002406260786407928,-0.00860068760668602,-0.003015298042848649,0.031843154964163845,-0.0016400570878102967,-9.753910594472696
5.78,0.00410167758027028,0.002188157715849281,-0.006717209131623835,-0.01160578250680657,0.030071927797373922,-9.752721752668812
5.8,-0.005997242244655421,-0.011110587226073984,-0.0031554103547698936,0.025709991891304542,-0.027672026213574688,-9.755357949207651
5.82,0.00020901710359706214,0.006842300423149515,0.00984178998888603,0.02173582996175969,-0.013770070900580165,-9.810954282598003
5.84,0.0006378562045035218,0.00428767525661267,0.0013254996436738839,-0.02751396992971806,0.09859671708632806,-9.77939487383092
5.86,-0.0018148233687490997,-0.004612369235845491,-0.005246396715824177,-0.019676477867083708,0.05778233232983923,-9.861426312374912
5.88,0.0008048643979469242,0.0003641029062973685,-0.0041778186201959005,-0.06609917844158557,-0.038265833427291715,-9.765549626016417
5.9,-0.0005462499018077546,0.004489442405586547,-0.005137190733882174,-0.047104834380116624,-0.0005254095700917122,-9.822216319373418
5.92,-0.0003102854391879656,0.002451220661700301,0.0024330065741261196,0.036493598073976896,0.01359258749856894,-9.87726453267101
5.94,0.0023711416167782793,0.0032602215132534478,0.00015974649404295463,-0.004313515311048918,-0.03146785724107864,-9.848759670190386
5.96,-0.0016485108968636959,0.0032993483994818345,-0.002305752695209809,-0.03783956068992813,-0.004260898257194107,-9.814752212483622
5.98,-0.0024639527061436424,0.008901435156811043,0.004871125483378207,-0.08964191991921562,0.004274895082071722,-9.723379796252827
6.0,-0.004892662960103259,0.005606048169627563,0.0016236008344312418,0.022403383214008518,-0.04770187526070867,-9.8271085336696
6.0200000000000005,-0.0046978044796169936,-0.0012057071218748762,0.007172048350828046,-0.04603525559612502,-0.008286011687866504,-9.821713862543085
6.04,-7.55867889978397e-05,-0.001891275076551589,0.007987764627424591,0.023794442076448614,0.021609575387800888,-9.838373150968
6.0600000000000005,0.000897316708082921,-0.006010387180916584,-0.0014514182183216129,0.0017302393044748188,-0.08838047259178669,-9.866373922676999
6.08,-0.002159785420382234,0.003183833180298396,0.0002593540983775968,-0.09104303439235037,-0.0013831409059439676,-9.846010120877052
6.1000000000000005,-0.0017832974661092366,0.005216173481947014,-0.0018659518019628182,0.020947422306523848,0.09485208336750979,-9.719147088833372
6.12,0.006757696954707163,0.00013564155830014945,-0.0011226361120386444,-0.0027188817225214015,0.026445952369930803,-9.694900889293864
6.140000000000001,0.0005533316351829413,0.003450059090221554,-0.006870705436954002,-0.0013137732198597752,-0.06187109713961034,-9.677794362782562
6.16,-0.00380599228656634,-0.002510281551604172,0.01300303296504601,-0.007970548497724909,0.07963972089408777,-9.786231588378381
6.18,-0.0009364197628173052,0.005608087693874739,-0.004680580701393118,-0.0023093432518219406,-0.010924065805213113,-9.83851443500899
6.2,0.001918370796932227,0.004786971196286469,0.002558545426527341,0.03334445097760157,-0.08001549394678133,-9.800068289045965
6.22,-0.013761204771466577,-0.004489655898222565,0.00373465273012149,-0.058485965427195974,0.0113313658405473,-9.822824022006905
6.24,-0.0007321298585138161,0.0006102896445474913,-0.00343350981050083,-0.024691253479994207,0.07709750312890278,-9.898114406208919
6.26,-0.0022015925807273907,-0.001574626543071848,-0.0012488315834621522,0.08095190365038196,-0.04712356694853777,-9.785032878115269
6.28,-0.001304571460163854,-0.006706017616599223,0.00010027016650376566,0.0860671730191779,-0.04615106724534157,-9.808297851503953
6.3,0.008852751504737131,0.0055819176418701825,-0.009108348562833627,0.028705548215515454,-0.044981053023511644,-9.880886102705567
6.32,-0.0007755785575226282,0.004369999004535283,0.0007791198655719304,0.0010819080503706158,0.10267665468263039,-9.80705073530791
6.34,0.0015682407265405103,0.01146502062938011,-0.006621127594572156,-0.07936606101597121,0.04057576575085558,-9.807061673835197
6.36,0.005817400891551271,0.0012429500849164541,-0.0036325481224642763,0.07107602464167483,0.03646109866824279,-9.805381445787175
6.38,0.002032657779840009,-0.004106035860113244,0.0007893656609850991,-0.002327762794868777,-0.0019136399234932482,-9.858506042953362
6.4,-0.0034665570069291446,0.006623533874549694,0.0013320120432672683,-0.03055915418797263,-0.07425729888765036,-9.734990545789916
6.42,0.0007588298603299778,-0.0030286612941514968,0.0011720479385811838,0.0661415388295963,-0.005779493780987486,-9.80717972345406
6.44,-0.011963419799342921,0.007510784425319602,-0.0007285562953557979,-0.08477266293254622,-0.049176341996525874,-9.801805240704216
6.46,-0.005456301003937926,0.0042757139006963105,-0.006959922726105338,0.021469276369802278,0.061829628539877036,-9.801775532847635
6.48,0.0009940206700009462,0.006193530663413841,0.008263599978050064,0.04996236487623613,0.035044398782522086,-9.765120953689303
6.5,-0.008750378186978415,-0.01113349349394709,-0.008154483737034706,-0.02902993410939424,-0.04329061218236752,-9.7954216266179
6.5200000000000005,-0.0035651659435344714,0.0014061647311971659,0.0015173468808491342,-0.02545961420249856,0.09688161606495066,-9.751924104422603
6.54,-0.0006516314844852314,-0.007696846200417751,-0.002650304823172314,0.052795242775970475,0.0625184973746304,-9.756364430817781
6.5600000000000005,0.0018260937884309152,0.006340588090043933,0.0025330221062166824,0.04059098635025473,-0.003906680849668881,-9.779183694572279
6.58,-0.002502813830451633,0.00729968918090057,0.008012899099408761,0.02086713509896135,0.016760911652189642,-9.838345112015759
6.6000000000000005,-0.007481627519145075,0.0048737650984224815,-0.0070414219560616925,0.025215129901407216,0.004141815427330142,-9.725352416687695
6.62,-0.006667955478933,-0.00463127915364769,-0.005314659678573398,0.038698808023283626,-0.010219732089953623,-9.676010469343058
6.640000000000001,-0.00015043600856902656,-0.0017186675935892174,-0.00207598673519935,0.02876340762109003,-0.022270461630292573,-9.869316215203808
6.66,0.00278789505269613,0.004210742051633263,0.0055098437689587365,-0.034073611676841795,0.012771706122913291,-9.82210926165056
6.68,-0.004791795030573755,0.0008757988865031153,-0.011902354710593612,0.0427242818444839,-0.07218558305951633,-9.796776023195067
6.7,-0.0064666295219378825,0.002485359640780478,-6.29170106300403e-05,-0.023526505727156963,-0.017106868292810863,-9.827730228350502
6.72,0.0036088085636843364,0.0005545766978466032,0.004846213224592906,-0.007998705507007856,-0.0033652745823724026,-9.76703586131522
6.74,-0.007887008213903193,0.0009102581453956014,-0.006193585601701734,0.018303351129856923,0.012877159537438516,-9.89679822891777
6.76,0.0023509605758812316,-0.003162207900371472,-0.002782429805240577,-0.02297696317116855,0.011008375042677212,-9.729913734530122
6.78,-0.0030624772241817583,-0.0074016776139885655,-0.004179480522150388,-0.022729524705700496,0.01314758468428077,-9.825473528545517
6.8,-0.003986901986941456,-0.005479600603388804,0.003349978274787274,0.08377906532346678,0.057534184292997864,-9.819441793783495
6.82,0.007379229319582735,0.005652549760457111,-0.003075977874168425,-0.058951512357697224,0.026893063939802266,-9.82692897488544
6.84,0.004175348572407776,-0.0029008298950655423,9.655368898712265e-05,-0.004765958460402311,0.0036939703761742445,-9.835941262076357
6.86,0.002879262189743415,-0.002022988539591688,-0.002719293546625112,0.02634168881622715,0.024756719229688345,-9.743743130440786
6.88,0.006200470010526744,0.001238365690326445,0.007201047215363949,0.0275433494150105,-0.0075919144779285665,-9.835177862219737
6.9,0.0005431583929184497,-0.00828239078849735,0.0013268040872665956,0.03470577647360241,0.0615116340652046,-9.782999589667067
6.92,0.006772528104352781,0.0055747332390670345,-0.005722524351356221,-0.047759308778554416,0.03457635318979726,-9.79945013788027
6.94,-0.003928456709718285,-0.006869130745896996,0.001445461734439277,-0.033145176725610286,-0.008041648834541056,-9.791565719029645
6.96,0.0030479431253139346,-0.003994880695407798,0.0017839854385408073,-0.05265492216820122,-0.01887697422494238,-9.724429611644135
6.98,0.007564182184787591,0.005288144258538612,0.002496073911466275,-0.09774521513723472,-0.09693784675856225,-9.752186593460836
7.0,-0.0006380776128056775,-0.0014065351428192703,0.004067866438955632,0.021263950740278564,-0.010782912262614783,-9.732511059043839
7.0200000000000005,-0.0007806578216985431,-0.008807796567682461,-0.007802683559206206,0.023739184210738007,-0.062199405735325,-9.768115699347309
7.04,-0.0002124254006759646,0.00564983284919859,-0.008445057377599437,-0.07416212341417099,-0.014318211817770519,-9.747126217023396
7.0600000000000005,-0.0013389977599515175,-0.003915581846902186,-0.0055375416668907405,0.06896341395688405,0.04372085503203103,-9.913529201617404
7.08,0.002276159994066107,0.0003848026845337553,-0.0024080902302001457,-0.028013772567382546,-0.0280190010634495,-9.765424909074067
7.1000000000000005,0.0005824004167122712,-0.005338041632055863,-0.001713913337840513,-0.015592527949279478,0.009363194162809117,-9.822121230052044
7.12,-0.005363832290010221,0.003747977858283803,0.001381435156149159,-0.009000869324529731,-0.03659464409889899,-9.840367238343998
7.140000000000001,0.008943771611382899,-0.004128439715631651,-0.0028912277917594415,0.03963034773391014,-0.07892865532018013,-9.794605484319735
7.16,0.001728369729903028,0.006292081776243649,0.007198191114408835,-0.020523222727555527,0.021044865295869845,-9.847657395059791
7.18,-0.005294220702689806,-0.0068495572701065,0.001458621580653592,0.024986664802446,-0.014780323336685889,-9.85203690919459
7.2,0.006310311896395439,-0.0005021221679702824,0.00044557152911464643,-0.021419286522341673,-0.024584062924187945,-9.86764887598737
7.22,0.004122680901712237,0.005776236144346359,-0.0009908266740924845,-0.02107439090023175,-0.027582163165434628,-9.854399194815173
7.24,0.004571746809911644,-0.008692779654290623,-0.005560638873018128,-0.04422075126150199,0.07246342309140197,-9.814313596536593
7.26,-0.0005501748096923725,0.0031023370369408056,0.009059502152753985,0.0049971185290955044,0.023623437540595187,-9.846574397970537
7.28,0.0020534334569849316,-0.004060738850385328,0.009271739348597357,0.07464834783916541,-0.029239983998014002,-9.839904264318989
7.3,0.005120951934449276,0.00023458010899553134,-0.004428512134041227,0.031809585464960925,-0.02078762689461575,-9.763033253282519
7.32,-0.0007674614685532607,-0.006073371078075072,-0.0035321155283665373,0.04990363167235118,-0.007171466118433601,-9.754607329734457
7.34,0.004719455309697218,0.0009776185416261783,-0.003378032046108878,-0.03523830561248499,0.028165378546003324,-9.733278618518685
7.36,0.0010521003463403635,0.007037915280529851,0.0029764948296099633,-0.01913385842923718,-0.031236818032421294,-9.744264671066894
7.38,0.0019370948322402243,0.0007323900214627624,-0.0031438292519713716,-0.02673137062401204,-0.04175509448461834,-9.802340710207272
7.4,-0.0022169394396527064,0.0001800293360394357,0.0011205174130136612,0.036421452082084194,-0.044888997136677086,-9.746518007990678
7.42,-0.0005575605845711171,0.01120347481289141,-0.0013381431429281266,-0.041585137015775986,-0.07080191693438263,-9.863682250270731
7.44,-0.009827698301350676,-0.0027119360106101693,0.0007871824546688859,-0.002829133662258642,-0.0340656681432724,-9.773737451804603
7.46,0.005265783470272538,0.0034801195229617918,-0.0007209839315663483,-0.05064059998607004,0.003787469173337154,-9.80040395549349
7.48,-0.0012838033545394271,-0.001345118050746115,-0.0006128622326829257,0.011357006756585282,-0.047620676557376056,-9.774300823514364
7.5,-0.0021236577551650934,-0.006287711009703311,-0.0003970030688644186,0.09047666851495614,0.10138049891363006,-9.790994810755905
7.5200000000000005,-0.00308413777552949,-0.005530157571455373,-0.006968423475920975,-0.019564824044683293,0.05764538353666341,-9.844554782212777
7.54,-0.00022169456098737408,0.006849192885068157,0.0034933936361344247,-0.013849993697859131,0.02889210689891867,-9.846002024323367
7.5600000000000005,-0.003307405733744717,0.003989234096998972,0.0037103799343213713,-0.0014895079859196352,-0.040812609480878524,-9.888090819706003
7.58,0.0012123680165045405,0.005580510052035478,-0.002196508570028196,-0.0653693102460681,-0.0048882826082370595,-9.744316030339409
7.6000000000000005,-0.0011503836080068663,0.0017314936451514836,0.004264260482127926,0.038627391653026436,-0.02485010338953959,-9.746151381362747
7.62,-0.007741320798460802,0.002118612120714901,-0.0060531733730718115,0.04376663855713686,0.005109658411711496,-9.833198460786534
7.640000000000001,-0.006456404418214255,-0.00015994143081361634,0.008371881126404957,0.0720122825955558,0.023665857354696788,-9.823658386068532
7.66,0.0009957904189075609,0.003091257874984585,0.001414485718731109,0.031820695852384666,-0.11038220315699472,-9.759275131921118
7.68,-0.009280941758471729,0.0015618561902507868,-0.00615380581255547,0.0617776190290855,0.02496578559656744,-9.784816103814508
7.7,-0.003194987035154689,0.002072877171736545,0.0002521110393735944,0.0753718342291866,-0.04735548980399332,-9.81139777250164
7.72,-0.0025629899729936174,-0.007247875875509092,0.00011559901938281293,0.04142627579571394,0.024800712717967667,-9.736121992014375
7.74,-0.0002870886573482848,0.0017312268394020914,-0.006677307770718343,0.0774790005902335,0.04104978596289164,-9.775535939446115
7.76,0.007260364516136562,0.005680225738096166,0.006567921151052455,0.09791114622897497,-0.05204826801123134,-9.849310556334878
7.78,-0.0015016236983409418,0.001504827130997162,-0.002505780231517671,-0.020107558621523747,0.020152678233468384,-9.777129871821959
7.8,-0.008111065601365689,0.006095016634201735,0.003977175803237714,-0.0038585036353679346,0.07888907280504627,-9.834269630288604
7.82,-0.006294149951168969,0.002072312049546855,-0.001169861268553698,-0.0540471770880839,0.004414275869554544,-9.772658231395432
7.84,0.0034318334385248436,-0.0008807668365965885,-5.920730548365742e-05,-0.0869904525643213,-0.006658866062424507,-9.840071140512299
7.86,-0.0032504856977590793,0.005181519956673843,-0.00659347510034363,0.02272602563890899,0.009654696767626595,-9.848047596627751
7.88,0.0035927584899215358,-0.002697073838808583,0.0005604505700171295,0.012607340684721809,-0.14578984908743098,-9.791081467159929
7.9,-0.005508346933117907,0.0004688980145998454,-0.002403145947979088,-0.058899541495694846,0.03584202922994216,-9.803831910527917
7.92,-0.00294066746124665,-0.003785316376431033,0.008271767670909634,0.0030472552787610095,-0.07552248852002359,-9.79144422564856
7.94,-0.0005442976444951501,0.006437389628731796,0.00807638872087374,-0.059883451328416895,0.04881579614322465,-9.912313898782422
7.96,0.0008085205187856487,0.001536438306768805,-0.003444560606148049,-0.10488798159030344,0.005288266543732923,-9.808213507897197
7.98,0.0023602912896226276,0.006153504594272234,0.004035006998616056,-0.0043916307172709515,-0.040162026547983495,-9.854238765635362
8.0,0.0039507908804235,0.009289025663625796,-0.0009709903589105119,0.05432975259767704,-0.03604812366786604,-9.936297763425538
8.02,0.006124866866285569,-0.0012243443608577094,-0.005993621678032393,0.0258789124224416,-0.02635175610511664,-9.751638295195832
8.040000000000001,-0.004136921283977839,-0.0013091376013787306,-0.007404545574711401,-0.05367185170161477,0.0040742103075361875,-9.768736418200751
8.06,-0.001170023840339866,-0.0008350522488530816,0.0020475294505879304,0.0036048798611341103,0.018666157753257213,-9.797270403380356
8.08,0.001534570517344767,-0.008651799475253436,-0.0029643596112051787,-0.05918028694583416,0.02920357047307456,-9.86880859949891
8.1,0.0015914849671495824,0.002094198388549715,0.0018860797846344454,-0.09153947785581634,0.04000435865659198,-9.836505121266612
8.120000000000001,-0.003024141543594217,-0.0013838381176546637,0.0028731678800336803,0.11410087702566984,0.03614855056951146,-9.687873978564749
8.14,-0.006090804180093884,0.001101650253828121,0.004749357037091316,-0.01828375090450241,0.04378165239350896,-9.789846413533047
8.16,0.004332400993272779,0.0039928827423253675,-0.0029164109982116604,-0.03752110701997366,0.07643169248159204,-9.841560343747961
8.18,0.0003981128812973845,-0.005845908938087479,0.00010779392574068587,-0.021021263254533903,-0.009661878097290971,-9.761558616210284
8.2,-0.003884483521617412,-0.003790577536919627,0.001981462492043713,0.04436496445844859,0.047653614512911,-9.80218447765354
8.22,-0.003001201293777827,0.002134095222857016,-0.005210332746526617,-0.03476383418574047,-0.0774849146516905,-9.746728536629453
8.24,-0.000573679989468413,0.0051868830750844705,-0.002761276979121453,0.0022533220181691514,-0.05023818624115585,-9.810735692493566
8.26,-0.006674060832238576,0.003557578098205037,0.0010686025610585047,-0.010990336684277834,-0.021259164809129275,-9.832420222619044
8.28,0.004144229083704775,0.008315205583777437,0.0011470240442570387,-0.014256872761431345,-0.02026342520787196,-9.82588714250432
8.3,-0.0014534664747076463,0.0049819306913330185,-0.0012366663439231176,0.029863702428117603,-0.05007154708118083,-9.891512156547801
8.32,0.0003615338188091699,-0.009971845007303526,-0.011406801290151208,0.022404046722057994,-0.0028230256685132064,-9.751513831231506
8.34,-0.009591107770466763,0.0019163464435206984,0.00014882635723647284,-0.03273229565640847,-0.010177939673470334,-9.74904426362356
8.36,-0.004327652103727857,0.006661451957935001,0.002651129007224842,0.01569518342950499,0.04733796854768149,-9.72797880593076
8.38,-0.0016835924520637593,-0.000419965742266203,-0.001931437952342817,-0.08724753889759856,0.002034370756836883,-9.826485876284925
8.4,0.007652499282463246,0.0027647035974853046,-0.000530706777852499,-0.0763703476129614,0.03120303743593162,-9.83717879409625
8.42,-0.00169233107891281,0.004064048624795978,0.0043882306123996205,-0.03491320003337476,-0.019370911273411773,-9.73819190384414
8.44,-0.0010725298961699592,5.4355654696244406e-05,0.009862846564942126,0.02060801059909506,-0.028291794308513953,-9.786312226865945
8.46,0.001102659885974551,0.004653742826266903,0.010692011986155546,0.03668289683523434,0.055246156029971495,-9.783312220041537
8.48,-0.004363909406545424,0.0003248912006501066,0.001135206987224278,-0.02894349549672568,0.045559199423331725,-9.893373386425214
8.5,0.004682990583676535,-0.010312491152849927,-0.0031140633546396543,0.0009077629838996258,-0.0381550540381522,-9.75143722752793
8.52,0.0011335796564384782,-0.004645307707781602,-0.00046472240023071694,0.04159747571668327,-0.04728550223134992,-9.834450952567236
8.540000000000001,-0.002356897085130811,0.002127027585714198,-0.0012967549198395882,-0.012852851549557044,-0.04412775041633244,-9.813128488185427
8.56,0.005952475868684536,0.0032719446927838547,0.004901109576209658,0.12792722798138784,-0.082575592846515,-9.760784340079041
8.58,-0.0045366383523414025,0.007291283733804954,-0.004099756348772215,-0.038270073593549954,-0.011570702228256076,-9.797572570767375
8.6,0.0020993763385583025,0.004141093917519685,0.0034533061052736736,0.07182458631697734,-0.007101434301741379,-9.768517491178223
8.620000000000001,0.0028718029617244207,0.003122932686045205,0.0014640699943013916,-0.04571378266162695,-0.0007734273294517586,-9.801244560676775
8.64,0.0035893618884667335,-0.006769068785415964,0.004579568556432302,-0.06272925284356878,0.05254148004503152,-9.846264043808912
8.66,-0.0063794030877067955,-0.007716097227727928,-0.0005451420231508906,0.04597702173780907,-0.011545144305842537,-9.80371611027092
8.68,0.004478081669685235,-0.0011230970551340308,-0.0005363687775018416,-0.13051780895763704,0.06894022064850734,-9.820404731468214
8.700000000000001,0.002675121916533343,-0.0051119533731370905,0.004229098030988337,0.003504558596563006,-0.0327730366738933,-9.841598616199398
8.72,-0.007733083494918717,-0.0046083677285029545,0.010460615225779407,3.300393121601864e-05,-0.08363344328743838,-9.81103849963781
8.74,-0.006454767118075608,0.003960059379075656,0.002458182666464775,-0.018643410555433806,0.05518413919823485,-9.769416889298427
8.76,-0.004302335787287414,0.002274596147218197,-0.00494438085176136,-0.08328469888489862,0.01234076679652965,-9.76884501099506
8.78,0.004161685296584259,0.002744658445686217,0.005246663939323155,-0.009790499030998502,0.021364927019780305,-9.785095451332536
8.8,0.002783874132927195,-0.003340202657233292,-0.008343119322478755,-0.11788959570638508,-0.07855056868126381,-9.805665207160844
8.82,0.0026827600388437335,-0.0015282095124569404,0.010964408441218085,0.0012625048820578846,-0.06661943518725992,-9.823057267780673
8.84,0.007697562410612652,-0.002740188968813551,-0.000933910859637187,0.015384774175056496,0.006851752503564557,-9.711569370323174
8.86,0.006014313756801996,0.006184997479277294,-0.00011481120695851807,0.022396263154530825,-0.05588476859708792,-9.88870756172493
8.88,0.01074091270103316,-0.0001263292095461519,-0.010342515854353071,-0.045783868537124635,-0.029315939502006623,-9.830511395572143
8.9,-0.009271843960000196,0.0010144889602070053,-0.0003624876833012314,-0.017108102112712627,0.00874306010706312,-9.753452777259529
8.92,0.002824961963523133,0.0005959977492083689,-0.0015597655655964723,-0.015102717487114753,0.040936766377142594,-9.691491971677866
8.94,0.004833730237395009,-0.0072911664523436295,-0.004304934138361389,0.01734239676652724,-0.09387208453586986,-9.81240516450715
8.96,0.009435899888217228,-0.0010446042934401465,0.008848026312648541,0.04789102294812945,-0.08585004401719183,-9.800887665801266
8.98,0.007327927548337403,-0.005012239184076462,0.0008462857903213791,0.05533247975035206,0.02435732290304488,-9.864002643998413
9.0,-0.009578980989007805,0.0008310486325549793,-0.002542154214922113,0.01338607211496759,-0.04080296413140114,-9.754609380964487
9.02,-0.008250222697958373,0.002412828667228233,0.003644443393856914,0.009218044552607338,0.022456228245731992,-9.78232269854181
9.040000000000001,0.0037765211871627,-2.8619149585254243e-05,0.006757412542617194,-0.017812086641229723,-0.006126049208580878,-9.908884218804548
9.06,0.0023390871825495854,0.004989763304413377,-0.002945645808861661,0.0015893780990597767,0.11769574869645896,-9.816543670890475
9.08,-0.00025535705632173574,-0.0019690229578491233,0.006571423336011805,0.04046649772026749,-0.002229926231793468,-9.880674714497458
9.1,0.0007514563688304849,0.004178731876783396,-0.004882642901141756,0.036717907314104646,0.002149208895174197,-9.755159540975953
9.120000000000001,-0.00022524732780539503,-0.0020934601889323477,0.004265800465489389,-0.10567472393094918,0.011270829127019114,-9.826843716916244
9.14,-0.003181575064415322,-0.004389427499981203,0.003397582015817101,-0.02832684235509994,-0.018209812532926067,-9.808383874647571
9.16,0.008195420593093193,-0.0037944306222915066,-0.0005208465852616511,-0.00931280914217443,0.0038492434407321184,-9.791138559799412
9.18,0.007062105347086261,-0.001921310444809003,-0.000757276252402743,-0.03486957035792967,-0.07306727935926646,-9.880671628095314
9.200000000000001,0.006723480632342086,0.0013818115226712144,0.002487501569130655,0.017545147740681694,-0.06232347459282193,-9.83299986793379
9.22,-0.00865849075024246,0.0028993341621332304,0.006097767100974121,0.01717968164352736,-0.03509173840516959,-9.86855398671508
9.24,-0.008403339209541658,-0.007106820346810471,0.001448316649611419,0.07970972325861098,0.028111293351814077,-9.798136504093572
9.26,0.001027670905551841,0.008733832959324605,-0.0029038182651860097,0.03562771981847874,-0.08170065028215284,-9.801364502545836
9.28,-0.001676555063287846,-0.005161954504594141,-0.0034545211089917582,-0.04052791533018953,-0.023178954694858863,-9.80290665320013
9.3,-0.001299065314414734,-0.006983387429047171,-0.0036217757476299448,0.019409087112727264,0.013130108632560143,-9.892488767223862
9.32,0.006239128575913513,0.0026491892035427505,-0.010039591748346784,-0.05243461866700484,0.03165096837837184,-9.838148078134315
9.34,0.0009466220617658074,-0.005581482849969434,-0.0020017289048477774,-0.016195327909213374,-0.15507135600267552,-9.699850663770738
9.36,-0.00015880639386765577,-0.0021375275325772655,0.004592410953004294,0.008098112136106297,0.0062909378283542905,-9.739646537633028
9.38,-0.0031274184960593384,0.0021660324655519893,-0.009862016400041276,-0.05284133090868426,-0.033187094317491686,-9.842137891463699
9.4,0.0019372885842355004,0.0010584795606970608,-0.004130281089575747,-0.0068700376017897516,0.06226814863688743,-9.908235690035463
9.42,-0.0021491262015646486,-0.0038157396144686195,-0.004884930129970303,-0.026529540222195037,0.05160739492664829,-9.87325781214466
9.44,-0.0023898625492878114,0.006674590336989017,-0.007004765674741267,-0.028167306885652218,-0.03631181931965151,-9.738383039674941
9.46,-0.005516646796093047,0.0021541852510816536,-0.0026609317471230276,0.008149629928910206,0.0344027965789956,-9.823327810849243
9.48,-0.005959313644533028,-0.004557754648524587,-0.005195102551636473,0.04714159403295042,-0.011968588953713853,-9.762550843233157
9.5,0.0037286079947352487,0.002372717005732552,-0.0003749270125268367,0.027669595558121585,0.006827179459316886,-9.784641712680392
9.52,-0.003926707189262821,0.006052035067992483,0.0006548248199977726,-0.021913778603173645,0.025673515320745896,-9.799161496838686
9.540000000000001,-0.005450758955984256,0.009989097721043892,-0.002904112063238684,0.05546204963686,-0.04172747599933711,-9.80226283110294
9.56,0.005546949907587928,-0.0049025331002354984,-0.003623814056306333,-0.07245559517316029,-0.018110639904034852,-9.726381903183682
9.58,0.009196881700480716,0.0015374684884827572,-0.012816138956543544,-0.004456195666587843,-0.007284282663181774,-9.816428926293261
9.6,-0.0017329667590281921,-0.0005939901277664166,0.002872018231028158,-0.08622718080024648,-0.050154052452464154,-9.761414470956845
9.620000000000001,-0.0011962747046183953,-0.0010931863078700163,0.004401743849728938,0.056996919931015036,-0.013417495175542544,-9.86467027924799
9.64,0.007978601293279744,-0.0015500239248656092,0.0017379278716958978,0.06641290729447702,-0.02483659766091026,-9.89110520598987
9.66,-0.007349506936098335,0.0031979596592443516,-0.0037816210562270705,0.05862178040038575,-0.01762647364551344,-9.835116027785741
9.68,0.0031144701342379405,-0.006608575400949538,0.0006166698859401053,-0.01678340597209389,-0.055445167464275316,-9.758059532933101
9.700000000000001,-0.000398345639993578,0.00015299452615927388,-0.00018923521198881507,0.015178178686787655,0.026187382673291678,-9.893245375864218
9.72,0.0011080701243688944,0.00023207857228456656,0.001064887347143187,0.1354909297448836,0.1154933555828369,-9.87814519378149
9.74,-0.005670943516225196,0.003881460534236034,0.008182370821087448,0.011095837083317196,0.047559541655796074,-9.783067854522308
9.76,-0.005800793173097737,0.0011680904734293093,-0.007478763033627211,0.01631036346942531,-0.07944179699546791,-9.857894942329098
9.78,0.003250050094961451,0.012260964520647915,0.0015863010381997453,0.005227865175664697,-0.016095927280099672,-9.853922307569043
9.8,-0.0009620342771028123,-0.002780354171789531,0.005900961810474708,-0.05457034457892787,-0.09793632215765145,-9.902220613973498
9.82,0.0005545260120198549,-0.0026995360963515775,0.006338240172809135,0.026319508773027068,-0.032302945036206586,-9.782124106897687
9.84,0.003375347584501568,-5.051804699109395e-05,0.001768249827243559,-0.08399932669478699,-0.06315826650489222,-9.819218551350694
9.86,0.010598690129196951,-0.004000789812792281,0.0035099702019340635,-0.058310192206086256,-0.09267990478379984,-9.762692373366178
9.88,0.0028356430245034966,-0.003231491983486143,0.0028794072479798095,0.010884911607291147,-0.0015547348371818379,-9.824646523092216
9.9,-0.0027210098319431666,0.001851509322540065,0.0009349229480234105,0.021906759349736054,0.05009742637461613,-9.811225220164852
9.92,-0.0037139845727425643,-0.0006410716831171338,0.0019716980661117806,0.004109211672625073,0.05240932325597482,-9.826433172135054
9.94,0.0017483397310137775,-0.0043993698357122565,0.005188538411707631,-0.017728417310602828,0.025143839322594015,-9.709634031013275
9.96,0.013277201647727117,-0.003414253689010097,0.0008616878805420051,-0.0899200634845643,0.012668875748911733,-9.867850510235215
9.98,0.007146698286735526,0.0006749489021930594,0.0013213868513334915,0.0902185873502494,-0.10176363052383552,-9.916450766801715
10.0,-0.00706626551984231,0.0042203042733011805,-0.007018314540270139,0.06930899772463221,0.07769047018001109,-9.891633534902375
10.02,0.004945446630141341,0.00351135458797813,-0.003999773282598188,0.047375659759100235,0.007660025816207082,-9.771922233530141
10.040000000000001,-0.0057440114862017866,0.002149333586081419,-0.0021277366427710142,0.004999948049476141,-0.032978770256457283,-9.736520499017523
10.06,-0.0009461463221623605,0.005068652265104454,0.0005479719098311446,-0.02638370024969505,0.015702545332612023,-9.78211055923905
10.08,-0.0022687117548546277,-0.005208506867528405,0.010065326530033843,-0.03516566607420251,0.007504970152758729,-9.815410328406424
10.1,-0.004305900558325921,-0.001343398526565002,0.0007707293442910214,0.04730830106256269,0.12066681556109236,-9.821254437095194
10.120000000000001,0.01132275682579941,0.003016547199413617,-0.0073919654231099545,-0.06538761075802703,-0.006894845703116272,-9.89925326513076
10.14,0.0036547481726239834,-0.0009013197297985899,0.008058496471222188,-0.019757977384320568,0.0029070128969217205,-9.789185181620589
10.16,-0.0006703762981184925,0.0034776015059869727,0.00393450514991856,-0.05452795907134146,0.04478267742515372,-9.727665803305264
10.18,0.0050035143981533815,0.004050036787491284,0.001071945606900107,-0.023653713980632804,0.041225266143377404,-9.686689816416933
10.200000000000001,-0.00867572436413863,-0.0005700626956045987,-0.005877124905046545,0.004522646889720779,-0.007038609981390544,-9.858568872596372
10.22,0.0022940545299824436,-0.006448571155369737,0.006925068576582186,-0.045198747756355774,-0.04791037995193606,-9.826987812374488
10.24,-0.004255311781324712,-0.0001783147445593121,-0.0061147414843188185,0.0046478271728511815,-0.041090365059209155,-9.744796910624
10.26,0.0009636319835581534,-0.0022220226497907665,-0.008146160701027621,-0.03471626542187839,-0.027990294643859017,-9.69951108548968
10.28,-0.008629320641217037,0.006453298694178747,-0.003923121701521152,0.04279099233516133,-0.019470563101879217,-9.776849246038152
10.3,-0.0013592349008531956,-0.009544668698156901,-0.003022513510338488,-0.009448587165818745,0.02737294600394908,-9.80397505479745
10.32,0.0007673078703597143,0.010462396740058158,0.006475057218470829,-0.004648897242303528,0.031246331722049117,-9.968608096020633
10.34,-0.000934170309369397,-0.003847470956294946,-0.004725339423677427,0.005070607844068639,0.036158169042557954,-9.875164838790601
10.36,-0.001725993159038351,0.002492031698222577,0.0054660715052993,0.05416252724716389,-0.06337825579168092,-9.797886266311233
10.38,0.003250995502897497,-0.0022299585054333525,0.003926835521955134,0.07967817686224922,-0.0605041080578298,-9.781328078168581
10.4,0.0046139288117189835,5.8544711743296655e-06,0.0034682240749013527,0.007876551791024037,0.041860967055815844,-9.778403617837496
10.42,-0.006536776944773708,-0.0023918293149997718,-0.0025086048599369222,0.07369172202695634,0.04080236912599651,-9.827313287050831
10.44,0.009531462688762694,0.005248510605996725,-0.001007610231294732,-0.08104608813467634,-0.007772494199434036,-9.839269014051354
10.46,9.793956750914889e-05,0.00185077709418069,-0.0029980719487741744,0.0408768447649728,0.086893717411725,-9.833818077822936
10.48,-0.0017321533784378528,-0.006097415671055254,0.0029037031312063666,0.05383978148895124,-0.030909165278771585,-9.815215509265604
10.5,0.0014538182169809572,0.004528625427058039,-0.0052468048776662035,-0.028442618489016715,-0.00072361296105212,-9.684920340468025
10.52,-0.006861015522718627,0.00706142268030616,-0.014873408494306174,-0.007295678088706291,0.05957268214184194,-9.768157360955007
10.540000000000001,-0.002745665435402518,0.004688498402050342,-0.004737999204644189,0.060721245274676316,-0.10663176065511853,-9.835068904968594
10.56,-0.0030345139769691904,-0.0015027771057245349,-0.0009010893901440546,-0.004525217899551753,0.0068209238154550034,-9.839887081654817
10.58,0.00023663604174975857,0.007161413180973606,0.005206740195676816,-0.026783020233066862,-0.04262028952246244,-9.79499897162476
10.6,-0.0020623251486756797,-0.0037738554969010112,0.006574787772899152,-0.02939385755651912,0.04226150910835387,-9.759463022914098
10.620000000000001,-0.0028680669463348536,-0.0023529102151760893,-0.0011111750949351466,-0.0580071136936003,-0.0018426645132466402,-9.878532589740129
10.64,-0.0020670332030527008,0.0045273975865986115,-0.00290423030968283,-0.0010790797638873674,-0.030218675014403125,-9.739657751592842
10.66,-0.00016955178758310674,-0.005119869702350453,0.0024448788266392615,0.09259087694546184,0.0022786904938432912,-9.859100437665154
10.68,-0.005462787095023988,-0.012038695167196758,-0.007513452437047694,0.014766541171624676,-0.0600489711201776,-9.917184232715456
10.700000000000001,-0.00035292969966149344,-0.004026545483107852,-0.0017245583469817378,-0.0024653402702086704,-0.00839987581108466,-9.90115132888474
10.72,-0.0018861792453304755,0.004977626356598611,-0.0032020510027534694,-0.043113275093298896,0.07442969099062038,-9.834922215570234
10.74,-0.0011924834920610328,0.0036310390473230786,-0.004183804330236198,0.006787226615951081,-0.03075114758108037,-9.782292384857618
10.76,0.0016478493891696146,-0.0066302188993138415,0.004957159830209181,0.06404899302797352,0.0231431741837388,-9.721583414011027
10.78,-0.008400773500338871,-0.012797025247068414,0.00551315341842456,-0.019807643023157046,0.01047650972417306,-9.843878053573484
10.8,0.004633103039598903,-0.0047246349599824955,-0.0038629726489883853,-0.03409297196188915,-0.014195841646359106,-9.780171697667322
10.82,0.003962123365489081,-0.0020350888243773593,0.006300469540038111,0.004555554435965557,0.07288004582019779,-9.79485259979066
10.84,0.0012380019512184166,-0.007641225150646,0.009560143832801217,0.07420481484012399,-0.0581279068784358,-9.7575715827581
10.86,-0.0015991697049964058,-0.004127005959461269,-0.0007406134369995485,0.004661411965824042,0.021456523661315157,-9.807186509474494
10.88,-0.0004414033517997646,-0.0007547342113310137,-0.0014124553839254725,0.0005846671404399405,0.044317079717306154,-9.79289915549126
10.9,-0.0022068022942379837,-0.005713405301834058,0.00868517611447873,0.03209575734820451,0.0720159998489646,-9.710233951450338
10.92,0.0007482655859386026,-0.0021721357991676036,-0.0049786697124295995,0.025027355318849132,-0.08187907195777017,-9.880032201753101
10.94,-0.0031535500055769813,-0.004372702242528862,0.001427966990827755,0.027972634648536172,-0.037963053561366394,-9.837209975134659
10.96,0.004066787548938451,-0.0009292664852471237,0.006431129375161658,0.06251038082572728,0.028375525417111996,-9.756858776928963
10.98,-0.001642165171387983,0.003963312649603389,0.00718957760536375,-0.035012261606966764,0.021534321753691937,-9.760744738403398
11.0,-0.0006973373557619669,-0.009888258319492856,-0.0077707487317647105,-0.06357665157866331,-0.06497214129169886,-9.894267271419114
11.02,-0.0034375172544459705,0.0048908796833973065,0.0015797691300715778,0.02143866338594079,-0.03273846916638011,-9.886393884623047
11.040000000000001,0.00468170463225843,0.0003196671084517544,0.0050804471183956024,0.012721281823617174,-0.075532881183875,-9.857084496156311
11.06,0.00023424120525310417,0.00695154173543611,0.004226085958262972,-0.055151702785429794,-0.034450003088793556,-9.74308484416632
11.08,0.00945433735597025,-0.001773927671488058,0.0007058359407071082,0.009516897980529968,0.030754133923303395,-9.816615729784234
11.1,0.005996806728700779,-0.004479083544520884,0.005588745853302677,-0.02730159515149907,0.03513426217402937,-9.854972379762321
11.120000000000001,-0.0023766328966808143,-0.00012414203042272618,0.0031226258576576207,0.03086311731541648,0.008997354883886248,-9.808525170701927
11.14,0.0037886983562172606,-0.005282121148944315,0.0024732726697129555,0.08156305070434615,0.01189346985846026,-9.86863773793456
11.16,-0.004134642418512529,-0.006424233284634508,-0.003230554401203938,0.06369212649704908,-0.008209926027080653,-9.751637338639254
11.18,-0.002722079177707189,0.00765920743594937,0.005229796389876682,0.0018638928584341703,0.013738606155823835,-9.781638027692384
11.200000000000001,0.007106495031713642,-0.003269914520809482,-0.004203156606148716,0.003487536295959515,-0.08348016641311383,-9.758851976910444
11.22,0.002440851642343363,-0.0012833547129700166,0.000582602924361398,-0.014824793637617021,-0.03631721278972785,-9.81275276735458
11.24,0.003427450451492376,0.018705593057553246,-0.0006875892124354681,-0.032098856546370055,-0.06384837548204873,-9.814006187592923
11.26,0.0014191415672713517,-0.012501230075124882,-0.0038612038445996,0.03615404306074051,-0.006837713426930574,-9.740465591834132
11.28,0.0055401605008019265,-0.0034512362468435594,0.005101841415299773,-0.04310539515869859,0.054490786556649434,-9.76095915869202
11.3,0.003942040972340899,0.0011921986863511803,0.006506740376922935,-0.050695058203203594,0.032926673781854175,-9.75302006502974
11.32,0.0006086463356707081,0.0063661962969258894,-0.002291588615174955,0.03428932976276244,0.058553850078131665,-9.822342036278444
11.34,-0.00670107009364964,0.00032535692836262425,0.003093848067238891,0.0015340141752930073,0.025059834818602363,-9.855999156853386
11.36,0.0010076800025794453,-0.008756877868863772,0.0027024016506153542,-0.038052956383269,0.07669146421441381,-9.82207534786896
11.38,0.003672379297535043,-0.002263461881256942,-0.004685150791933952,-0.0036573992761389424,0.07484046267260619,-9.829376888984092
11.4,0.0014935647776905814,-0.003090016417119367,0.006716240321649533,-0.09818591669499538,0.015207776892846556,-9.866150868606491
11.42,-0.0007225755786911035,-0.00563129648610035,0.005212987160864731,-0.07261174700861413,-0.02002464915894253,-9.805733954665751
11.44,0.004355221554605371,0.004831576250529914,-0.005024087608443917,-0.025306359396209517,0.011991868349754955,-9.855460667437463
11.46,0.008664479869440047,0.00861926401320964,9.51297231171077e-05,-0.04001233845108273,0.03518885357518733,-9.846714302099022
11.48,0.0017449506246876637,0.0010458980888352742,-0.008466944472106453,-0.052651192492454105,0.012589145985729562,-9.779079284051983
11.5,0.0017922165467339516,-8.653339871525151e-05,-0.0070461713914043425,-0.029180316748706817,-0.008647760456830226,-9.816299776622396
11.52,0.008061417565308726,-0.004104259450046145,0.004447202531752326,0.005477126721195087,-0.036187868797737575,-9.827246685361695
11.540000000000001,-0.0048848968075718684,0.0016885133706597076,0.006670057359701152,0.027594652958398632,-0.14004434458521073,-9.754399933397016
11.56,0.000894383451231216,0.00014632467592653415,0.0019568056230669794,-0.09837408501619313,0.11250653380768288,-9.758453658005157
11.58,-0.008360464561371482,-0.0009743527924442133,-0.006041543088126758,-0.08019651418654423,0.10551385537212832,-9.726695716635177
11.6,-0.005351783446117292,0.007976848790115499,0.0045155870496891085,0.03575114396421094,0.04044080097711253,-9.73826659543506
11.620000000000001,0.008197983258294413,0.008965610515851425,-0.002098124814445737,-0.008920242387388746,0.014029817798781999,-9.877490991098089
11.64,-0.005749232159725515,0.0031380342228728535,-0.0015085517192159634,-0.05833717039273356,0.033415882385801725,-9.84387711125309
11.66,0.0049450335189280496,0.006768021214035788,0.0042650181804005875,0.024888274768925044,0.0210488247682398,-9.85284363292633
11.68,-0.00645865934580738,0.004581925415680663,-0.004781491516659165,-0.0447687475315985,-0.03698327990982816,-9.793562420096842
11.700000000000001,-0.00035494569402190923,-0.0015883818185349356,-0.001694513796554427,0.012767679222460047,0.035893712512622536,-9.885723178543813
11.72,-0.0032288155467562196,-0.005552912306412631,-0.004554306207283183,0.04098746077869252,0.015031724206937278,-9.911398001785372
11.74,-0.0005594957930042203,0.0022153313668523042,0.0055316652178947125,-0.03246019899569219,0.003966726491904191,-9.812671505025868
11.76,0.00465013743370585,-0.001506664552277345,0.001257978830865024,-0.04625722661913023,0.03223389586751166,-9.800542519397046
11.78,0.005756494860102902,-0.006313981425242596,0.0019202803284552108,-0.02891143740742297,-0.043261947429191296,-9.768629051954921
11.8,0.0015535509193198207,0.004468495751461086,-0.004706513542624985,0.04120131582722205,0.043684532619136296,-9.865217875023882
11.82,0.002334289036672242,-0.0008456946613176312,0.004795212645850018,0.07040083198978798,0.08405721144296106,-9.934746151798045
11.84,0.008785145783966433,0.0009953337217962347,0.001717539934166928,-0.049074545285225764,-0.032810605924627465,-9.815144621478781
11.86,-0.0078104697512413,-0.0012788345265696774,0.004446460200499737,-0.015220878003504176,0.023011025419365283,-9.774289210279246
11.88,-0.0010111635931466824,-0.0024035819140458786,-0.004348749632891378,-0.008638030733080804,0.02697277928698822,-9.805654851920561
11.9,0.010305416917610088,-0.0011566204657993033,0.0035645938699921664,0.05609988587610431,-0.04185674560584848,-9.729677544530242
11.92,-0.005824601510678397,0.003506547344156777,0.0034836965951699815,-0.06351749088759293,0.05471849411408012,-9.812000050572752
11.94,-0.0025529363657884273,0.00098539808788023,-0.00715378724181705,-0.06278683584177566,-0.08050298129589896,-9.829908192481305
11.96,0.0012592278167769986,-0.002794289856136076,0.00456105915228356,0.09006303129118726,-0.0049750684172227425,-9.832422960156352
11.98,0.0020591809362382847,-0.006495426035181603,0.009645590111694503,0.056173704548257444,-0.0011995735012167493,-9.864371823546234
12.0,0.002289792456569389,0.0006322643685863341,0.0022833643962376074,-0.06419254477232755,0.006694128164721098,-9.756841558598518
12.02,-0.0001635769401602868,0.010584441815657177,-0.00738702967320194,-0.07927649109102336,0.008325959889864237,-9.730890882922457
12.040000000000001,0.0028772321825742187,-0.001077151697687191,-0.007530039385597993,0.0025457451093740453,-0.010445799781509101,-9.829859008323021
12.06,-0.008255710452339967,0.005922715715280792,-0.00043734713241999493,0.0063552665924177494,0.13020259804972129,-9.780812614534424
12.08,-0.004566263873659828,0.0009418980994011137,0.004376006535325667,0.06176326621669207,-0.08611005126735594,-9.792907049365287
12.1,-0.005687315176890298,0.003677651618876632,0.0037923992239918304,-0.04416302002070743,-0.032512684920305006,-9.851123915706658
12.120000000000001,0.009512871425400036,0.003178863979022187,0.004977935309899939,0.041384389460201766,-0.0014226101241260865,-9.806811850011163
12.14,0.004000453822170349,-0.005312621244850442,-0.004115717649423645,0.1035400427779613,0.035099094685124316,-9.82019054045688
12.16,-0.0014357391694383077,-0.0011683960345161303,-0.005145098149486224,-0.09644023346068813,0.06891189151974796,-9.818826315937907
12.18,0.005862944535280951,0.001361041903775513,0.0007154377381483006,0.12634472418368375,0.01870361430959979,-9.752791776184887
12.200000000000001,-0.006736512942691817,-0.0033366254043309,0.004455615827952621,0.12372624636022969,0.0048631225525486085,-9.771255465668984
12.22,-0.0021643519263797087,-0.002073943085033195,0.0023670058934750307,0.004049370105333891,-0.06335209428120268,-9.816230687877555
12.24,-0.004792308073989462,-0.0021228821684804574,0.018357549981860562,0.0018098229615684366,0.002244848029459952,-9.780863050867186
12.26,-0.008980868345031865,0.005263504084454527,-0.007079225945571791,-0.014472753051312896,-0.008660749756594878,-9.75108530126379
12.280000000000001,-0.0045594965528658726,-0.004554004181698404,0.001465128040065295,-0.041184566403674946,-0.03303394525340382,-9.825879282955281
12.3,-0.004192927161117145,0.005598285274514737,0.002345288735206606,-0.04815862964575364,-0.010759527466874802,-9.841068139713338
12.32,-0.006366245160683053,0.009655660505265905,-0.00657699729876848,0.08304384734468952,-0.010491959137178144,-9.845256994597845
12.34,0.0032798929996011713,0.0016135038901558608,-0.0003540460516273051,-0.02558811343649195,-0.03004135490596323,-9.908356411774898
12.36,0.002549658328010232,0.001895179618117665,-0.0035464716174986085,0.03709339013200574,-0.09266758638632741,-9.820763166150316
12.38,-0.00691982353718283,0.005171239847192684,-9.082445376326825e-05,-0.08484184744281205,-0.0708335038929953,-9.824719004392469
12.4,0.001911128412066615,-0.0059039524514335655,-0.0009930001603939086,-0.05674425328740186,-0.0033982086757506935,-9.775986238417829
12.42,-0.0059938412405718105,-0.0001818055377282004,0.0021984045414913463,-0.06060393144815024,-0.027410869222502333,-9.736478738631307
12.44,0.004785486742029616,-0.005191776919034877,-0.001439972439611828,-0.03898999305976014,0.014412845582131576,-9.831843437112026
12.46,0.0018762378719557255,0.0003677020747983295,-0.005400721750570606,-0.0783504313062998,-0.006382172998572443,-9.77717643142054
12.48,0.0020873257546441836,0.004945127989347443,0.0063834270255676215,0.07889928799685189,0.03113843227970873,-9.684518120419456
12.5,0.006015787007579875,-0.000985178566965123,0.0006647423775805001,-0.029192567511644625,-0.04326781776240253,-9.862160601602625
12.52,-0.003086644546067344,0.007082791973244837,-0.006450766532946869,-0.03946321974882028,-0.03883850074066708,-9.871893335714553
12.540000000000001,-0.0030142137536513774,-0.0036940720724751176,-0.001673435655352768,-0.0336558744602347,0.008345132718940074,-9.800265610253392
12.56,-0.009247488776652659,0.009692077557378055,0.00297289479976205,0.0029727440837837168,0.015025476825861347,-9.747009196755638
12.58,0.0014748678318012895,-0.002963275667003882,-0.004450191224147983,0.013607108790541942,-0.048822852862003135,-9.801237693284932
12.6,-0.0009642706731618579,-0.004996880498870141,-0.0019332407782709819,0.018391847233173872,0.029570667575844964,-9.871750153719562
12.620000000000001,0.0137920502927131,-0.000334929362659431,0.002130357329791212,-0.061229010245450334,-0.014279212746376894,-9.858397850327295
12.64,-0.004378834665202579,-0.004410824812500539,0.004876543185706303,-0.07342170919847404,-0.055654080678135126,-9.751729913360197
12.66,0.009431043045641227,-0.000787664773961051,0.0085592699592855,-0.027354304514410045,0.019078632873420938,-9.809036359086763
12.68,0.0007632842085786688,0.007840654003020971,-0.0012755865063161361,0.02625662511992511,0.017645066423493824,-9.814205681247119
12.700000000000001,0.0062526453479143365,0.0032697810975139754,-0.004260405619271423,-0.06498997542601676,-0.12489106320438502,-9.787538562171196
12.72,0.004313023758453667,-0.002916386196023317,-0.001440915241839881,-0.04850305864778288,-0.096232603943265,-9.7638135270881
12.74,0.0018886016773288483,-0.005386261581028452,0.0050645051081954565,-0.07322295500798892,0.012713763787884483,-9.90380979569299
12.76,-0.0038815957341038656,0.006377012715199937,-0.006435190251470895,0.06702790057458353,-0.024300620869561418,-9.792534773410829
12.780000000000001,-0.0050242987277891536,-0.006504109156128833,-0.00029867239181694644,0.008380023120860426,0.030582175145166892,-9.796673744906709
12.8,0.007862494325732891,-0.00027064694426923635,-0.0041709330154406,0.017933336581933555,0.08489033314125971,-9.797976054980992
12.82,-0.004196885836681186,-0.0015749466385429306,0.00181438071549347,-0.08629787556892654,0.016874059533232115,-9.841527936125724
12.84,0.00311620059700202,-0.004768754024599336,0.0036946815430599655,-0.053137780064534935,-0.12342414343975715,-9.839438936610412
12.86,-0.002959988194335752,0.0024550893658614615,-0.00047095554718766866,0.018096211990499406,-0.05368890985772699,-9.916648241775697
12.88,-0.003921446296155305,0.004441803086704961,0.004483354444652656,0.031149820192275853,-0.028132442641958046,-9.74053213073081
12.9,0.004980253414691407,-0.0005391407499072044,0.003960116248818807,0.02427106353982725,-0.008627799766827409,-9.775154782794504
12.92,0.0022846866130785855,0.000858602967230397,-0.0014344533096254605,0.036263432118355574,0.002300796895444361,-9.810576891747612
12.94,-0.004164018879907514,0.0033421760197301456,0.00266700851345714,0.03614732021979596,0.000787995522228288,-9.8564723039934
12.96,0.0028828143712277,-0.004545714273181779,0.003896874340745192,-0.02716629946708146,0.03497247245921721,-9.799533899053833
12.98,0.012273055147688594,0.007441449694269372,-0.004906199492907367,-0.032094429105873006,0.07543148471961757,-9.874606547752089
13.0,0.002446252733992134,-0.0035395540289024914,0.0013277173018049777,-0.03685619284721566,0.024230831119143204,-9.77895495564101
13.02,0.004812097605273637,0.009147934191102911,0.0005241059081792189,-0.0051983113566641155,-0.0422280486024458,-9.794728897116752
13.040000000000001,-0.0032775003629934513,-0.006213399922014801,0.00394467622851448,0.0196082507856875,0.05906356085909799,-9.81492586200266
13.06,4.119097254020933e-05,0.00038069938803794067,-0.0001907196651975709,0.007211955758714202,0.05281528092144832,-9.81365521614585
13.08,0.0024092108030882063,-0.004972108646366258,0.0077164621013782264,-0.003693812480207346,0.0653253372329905,-9.8750661225505
13.1,0.0025921376514923674,0.00318721136344941,-0.0039032123596758686,0.05365472565996596,0.007403552264064689,-9.84361882175108
13.120000000000001,-0.001029071936493369,0.002506514425464447,-0.00380369024911052,0.006710204366821195,0.031055616816898703,-9.875176379474325
13.14,-0.0023868851139919934,0.0022731389572792377,0.005685284236988981,0.01906188786773771,0.007330918592390698,-9.826436194648814
13.16,-0.0010564468372642503,0.003387686859817413,0.00011940107289662381,-0.01958522239813481,-0.013810218381461202,-9.827404246386584
13.18,-0.008340846668596875,-0.0009467191640412616,-0.0004064630785126533,0.1004401511777094,-0.008853313077155558,-9.839784986317053
13.200000000000001,-0.002983297343386979,-0.010731256430351055,0.005254100970139364,0.0503860782923827,0.053728268633139856,-9.88988964454161
13.22,0.0026388341232543053,0.009594852679146209,1.2688277663799669e-05,0.05998558058491737,-0.0342946899399306,-9.738289703535655
13.24,-0.009728141461652141,0.0074392754674473096,-0.000692983479795361,-0.013796893919061368,-0.017651967106031143,-9.837030640806526
13.26,-0.005588662997758189,-0.006788464731653367,-0.0003710393457645752,0.009172662905980572,0.0040047537474853815,-9.853542078302302
13.280000000000001,-0.0023957252613066742,-0.0006626294754865053,-0.006228874153841065,0.021009777544184597,-0.01376367939306699,-9.802219645107293
13.3,0.012176518489223942,0.0028801581929246956,0.0022964881296937607,0.06860108319282968,-0.012893152514508963,-9.79045206228677
13.32,1.945999860832186e-05,-0.007390282808840168,0.003804031251376734,0.12224998116001332,-0.025994282702435763,-9.816217531744313
13.34,0.00345719407948412,-0.010639481451777504,-0.009004948593624159,0.07133746083798256,0.03120784583234751,-9.85437954736637
13.36,-0.004786292655465981,0.007220518428945383,-6.558965684611419e-05,-0.01299015399835751,-0.019992108304244704,-9.788129979869948
13.38,0.0013177595693909805,0.004939481826876345,-0.003419489481200852,-0.07110733079393779,0.050775924398816945,-9.812422329114957
13.4,-0.003729042632265724,0.001187246960550141,-0.0068397411291207435,0.03337479708569704,0.04746532265199984,-9.833825701450143
13.42,0.0006904139365315713,0.0031032478342389804,-0.003409227815165679,0.0006063786137578174,-0.06185930938083578,-9.82181229438689
13.44,0.003400668773090559,0.00310108850214837,-0.0027871673195720976,0.08287544322396498,0.006004961268586727,-9.8239700265278
13.46,0.0037768191267340727,0.002778483588652137,-0.0077488289516448065,0.038489925663956745,-0.016492183589308707,-9.865905085038031
13.48,0.0031978003787385342,4.083360542464313e-05,0.006082974652185329,-0.03227931455394009,-0.004274011638081331,-9.869872640794705
13.5,-0.005565574380293148,-0.0023215272903578375,-0.006818064852994718,-0.004166796630859203,-0.006847609786092862,-9.799721770652356
13.52,0.0024816942241129257,-0.002900546838059835,-0.002121981111999171,0.033982088635642255,-0.0573222589356126,-9.786857885214456
13.540000000000001,-0.011377385694911783,0.002535536213538749,-0.0010585964479965359,0.026908363760382456,0.075735118782025,-9.750646183781464
13.56,0.009214503362787414,0.007780213451376302,0.0023856619179220247,0.04831455799838864,0.013962462040396523,-9.798392603676142
13.58,0.011069986779175556,-0.0048085256849373014,-0.0019187056361367452,0.006758490742135508,-0.018878870246108258,-9.80149536647624
13.6,-0.0006289956101305297,0.0004910541130839327,-0.004655387827759017,0.004232066654083942,0.056158650944989154,-9.811755845226434
13.620000000000001,0.0072951248399207285,0.005284983360723745,-0.0006058268567180487,-0.04057472057438983,0.03677448660874287,-9.763847598937677
13.64,0.0032333438054770224,-0.002004785210971187,0.005160939975642396,0.020939365027552864,-0.07292560919107544,-9.76901534025423
13.66,0.008681744638859795,-0.012030692164611934,-0.0009969654545187016,0.08979253028327079,0.0008739728556388979,-9.815490298249978
13.68,-0.005345489290371018,-9.971757807783867e-05,0.003919779818956719,0.043725157976768854,-0.04719914119675277,-9.820741686480698
13.700000000000001,0.008413273535500813,0.008504584361877876,0.00503246375332329,0.04889282059899818,0.010451223848849348,-9.688762550541542
13.72,-0.008026682912965342,0.0007619087296844909,-0.003092289288181524,-0.018421667585798936,0.021263833204728647,-9.767175175651026
13.74,-0.001125169934332777,-0.009815537334510595,0.00332610408197097,-0.09319565965831507,-0.06622008278405994,-9.847603316931918
13.76,0.003245694568865113,0.002329470818850912,-0.004034136219373232,-0.049030764717036684,-0.03542933567549612,-9.809422672821478
13.780000000000001,0.0033889398687201966,-0.0032189419425986514,-0.004180364898712458,0.009338147885178822,-0.011997745003902952,-9.92892581736019
13.8,-0.005657707910534647,0.003832236680156567,0.004947287253750209,-0.017714336911911148,-0.054317679876577624,-9.729338024359766
13.82,0.004542637778241845,0.0020702291043660113,0.005756873791438464,-0.03636384480443707,-0.03973406555779156,-9.85338606935854
13.84,-0.003801295530488191,0.0006892676602068499,0.0009101348913295654,0.028507436237121875,-0.009663911740099757,-9.819226172721091
13.86,0.004213886213888329,0.001450201615073245,-0.0014011435358933474,-0.029331413691793862,-0.09629274312731341,-9.850960980980382
13.88,-0.008736727937291718,-0.0009760614220772049,0.003963158250085556,-0.012875933400883484,-0.08418659989547012,-9.79101100872176
13.9,-0.002019778905657203,0.0017905586380693522,-0.0037535899679116565,0.0011605172734026157,-0.08972654201162354,-9.837730660164397
13.92,0.00798294407442155,0.0006204012262338424,-0.002795880030867696,0.04546284604348558,0.05399025006845031,-9.780988883802253
13.94,0.004216136673133164,0.004348061312456197,-0.0007088050890479604,0.10013980006832657,0.006885028957822842,-9.77985554637575
13.96,0.004280555668701881,0.0030158428369928287,0.007927492693294019,-0.03952929906264165,0.016782377322709045,-9.803326026279382
13.98,-0.00011993448016270424,-0.00028528569077333575,-0.0026334493990235568,-0.06300128611826342,0.06447725047266678,-9.781051006686564
14.0,-0.004061143824906614,-0.001539877281375473,0.008013645277816384,-0.07463088542434118,-0.022619667954940904,-9.788132907609594
14.02,-0.001394312530458728,-0.0035596616922051296,7.74951134948613e-05,0.033892179501313784,0.013468785879967266,-9.797067369397036
14.040000000000001,0.003709006390091705,-0.00425512187695316,-0.006049035021711438,0.005668902659233976,-0.08611544387965639,-9.82715324598289
14.06,0.004336057714640196,-0.0030398398496778107,-0.002964831807179998,-0.0888200451097627,-0.04950635562428197,-9.811623093537277
14.08,0.0034591015762382707,-0.006167146186885403,-0.0012869397841363288,0.014884769303539172,0.008926440570815505,-9.888227868909212
14.1,0.004036799446321467,-0.010434653331860094,-0.007335173007793287,0.04061845188887132,-0.057746499566986034,-9.815006732085205
14.120000000000001,-0.0010172609680694892,-0.007571939064017424,0.00799305046672078,0.05095199181719598,-0.004723755159699777,-9.796124447945587
14.14,-0.003995491749375189,0.002731825863328064,-0.00047830439982076675,0.08070945880064934,0.011997408936399959,-9.755414408268669
14.16,0.0008143027386976573,0.002812415391618438,-0.0038718339692951375,-0.03454278883005584,0.09376982242087796,-9.891681523367694
14.18,-0.00787789172319773,-0.003185883235424466,-1.675235236749066e-05,0.11547926983651223,0.02112266248771259,-9.749135110380069
14.200000000000001,-0.004290838924803012,0.006528169528878801,0.0014691099588326768,-0.06106918229819104,-0.10003205202230561,-9.909396613556991
14.22,-0.007342152242131413,-0.0011415367018618812,0.006139359734739375,-0.08873420620581332,-0.055931058609741915,-9.781159015224127
14.24,-0.0030269359838541515,0.001459962924567695,0.0010191402057509677,0.09917535539182566,-0.02901087150883825,-9.850965631537438
14.26,-0.0017225892871630935,-0.006100987936819504,-0.003920212113937572,0.07933729071308816,-0.023355421258631954,-9.831781057627458
14.280000000000001,-0.0017452585919144642,-0.005050643580964348,0.0014408532495181418,-0.06220112483513769,0.0324189964084549,-9.848190188541425
14.3,0.005404056645121187,0.002708102102112531,-0.0037012481775306944,-0.046748547044828004,0.0018841790850176177,-9.845858343739021
14.32,0.00039854254393307235,0.003935820299418984,0.0023101060675235164,0.01303429373087667,-0.060526468048719764,-9.855724307622001
14.34,-0.004664814539826544,-0.0038431790664102245,-0.0019873680519774456,-0.008617725986193031,0.02871290896573682,-9.861316092935429
14.36,-0.003737834032471047,-0.009615054257202205,-0.004319062607542411,0.008187359704935051,-0.040331377265991064,-9.817134761307878
14.38,-0.0005504291236741804,-0.002610052251038405,0.0025927380199741224,-0.040292321794846986,0.035180048097242345,-9.714575040940584
14.4,0.0001477040909834705,0.0009946832356119589,-0.0015902325041194194,0.0007113340143043524,-0.021169021589841974,-9.844432927058856
14.42,-0.0009792364075141829,0.004476212068569842,-0.0029823004499530932,0.05927070486286136,0.04485037462142829,-9.784737961774374
14.44,-0.0065534273067842175,0.003013543655794363,0.01089056406855049,-0.07086638683811376,0.054620504698097566,-9.78714075733688
14.46,0.0038328167057746234,-0.0021163754434749267,-0.005833384333573234,-0.03327896058111245,-0.0652491751468715,-9.759265920855478
14.48,-0.0038127144473085557,0.00466726067220555,0.01312387979444309,-0.09226602602265761,0.13076052725569887,-9.814037755903703
14.5,-0.0012453275375876498,-0.007790687724799033,0.0050838196655853445,-0.01269856622018952,-0.014986314823134976,-9.76449569318522
14.52,-0.0053095156737894104,-0.008618775410013702,-0.004616911805182067,-0.04570370832119208,-0.012713909275464789,-9.748676159052899
14.540000000000001,-0.003827307504736338,0.004652181841076193,0.0024146702568765823,0.13419062042854432,0.02385484385960827,-9.784994016642079
14.56,0.004511155038029634,4.16382117855262e-06,-0.00043585095664091947,0.06068807086055214,-0.08326335682521907,-9.736860870801584
14.58,0.0028467515913424756,0.0045259487238531165,0.0034192387245473794,0.0474976311107966,-0.037537925421542405,-9.800540394649131
14.6,0.008532988168193908,0.008400191985712496,0.004413064219869579,-0.0009682546063526052,0.009085705830127418,-9.829318929442431
14.620000000000001,-0.005898464442688398,0.0026461287530081907,-0.0012017811524194105,-0.018931930434574296,-0.06244385490018628,-9.79414877536624
14.64,0.001831879172693154,-0.0005819031254946408,-0.0011146898149498952,0.07308232716934164,0.07096948781822861,-9.780366209771579
14.66,0.006035856546406421,0.009527452448559405,-0.0035940401555936766,0.11889795118353426,-0.011210416379412197,-9.763884850651014
14.68,-0.0020551561311137547,-0.004058858315009319,-0.0051533215230081565,0.007010516740015078,0.06036212872488043,-9.799844463924583
14.700000000000001,0.005271401750200751,-0.005186193611959176,0.003771519750112119,-0.03688769054927611,0.03373504258652202,-9.820624569060822
14.72,0.0026391753857641694,0.0020284750339810533,-0.000644038653976796,0.005215355024321167,0.021968294695578486,-9.746784536217382
14.74,-0.0002740823811542979,-1.3776534519596953e-05,-0.008160659126658514,-0.023244406798248407,-0.07482502803125411,-9.778107249482195
14.76,-0.0046804750405133036,0.0025154051470100266,-0.0070062756979998,-0.009782837732121071,-0.012487580910495018,-9.791815412403242
14.780000000000001,0.0049276691147336895,0.0011502456399060065,0.0016534255756630411,0.031815794903463535,-0.05708332643259267,-9.809017826405444
14.8,-0.005401745899879653,0.004525168300015286,-0.0060306803327219395,-0.04818953359287853,-0.013871487997538325,-9.815968049101569
14.82,-0.005394659969591228,-0.00028984711820153984,-0.0015125352813997153,0.05321232782162097,0.11540444326264088,-9.781587298802819
14.84,-0.0058559448704858744,0.0012570371637988648,0.00043672005667831756,0.002530050202243431,0.015385375726792045,-9.733094307114166
14.86,0.010884584313010004,0.0026843935534343532,0.0011516339440736459,-0.04684831529880514,-0.01627447489839934,-9.85590303551901
14.88,0.005748849700142601,-0.00335700709241505,9.38077428139561e-05,-0.05800332228195335,0.06122539056462073,-9.784908645286702
14.9,-0.005494743794554511,-0.004035218496350171,0.007573017070310843,0.07636684624644968,0.024037504042464422,-9.829302077316324
14.92,0.0008399407152043499,0.007923259640797181,-0.007639928427052141,0.007212313294437453,0.07500698865035449,-9.77221715882727
14.94,-0.0006663286808693085,0.010035284022085153,-0.008964027617415908,0.048575487498507465,0.03629396050360866,-9.858344964361596
14.96,-0.003453401828919501,-0.0062605739102360915,0.0010816943647487761,-0.03312939292182648,-0.029224750636330527,-9.82685478391942
14.98,-0.0017049263289007242,-0.007530996275173809,-0.00759281282447651,-0.03883110625397218,-0.02851977166248522,-9.762965699106282
15.0,0.04873935796563532,-0.014718974127024716,0.15541509924058605,0.2588999971070812,0.7444842376417408,-9.769934019623777
15.02,0.04813118297177251,-0.021334406740093386,0.1532316596300127,0.25165636847263423,0.8245254645478886,-9.845578366147647
15.040000000000001,0.046175726953170286,-0.016947982676084578,0.14842311261826177,0.2367902988648019,0.7199194864558425,-9.819630096131544
15.06,0.05076808661213646,-0.018178613235188372,0.15013939544460522,0.30861331283688315,0.8011772835602232,-9.800972696449408
15.08,0.04608737977684702,-0.015759086426611116,0.14589306100872435,0.3084778823173055,0.7872006632802006,-9.798266321129027
15.1,0.03893577942251593,-0.02833930728393662,0.15578529283123413,0.33610126298564846,0.7588664117249833,-9.726115574437404
15.120000000000001,0.04549142373812559,-0.019601522744887814,0.15274800878844627,0.32384613894496583,0.7729973049613056,-9.84787521183722
15.14,0.05655090442372305,-0.016076658316984013,0.15253251495286266,0.38846956700821156,0.8250998817029237,-9.739440150433023
15.16,0.03967405375203404,-0.016606566752108448,0.14593560108762288,0.37430523030242946,0.7258647406470096,-9.845685860580726
15.18,0.055422168574734115,-0.01357765896931916,0.14699576792048616,0.3608361739279981,0.7869114280348903,-9.904223240390923
15.200000000000001,0.045179920772163804,-0.029815381572559647,0.15757790134760466,0.38194799179928834,0.759534635611992,-9.781184003675634
15.22,0.04454156743551925,-0.0259732902459822,0.1502749694077437,0.18481469140946694,0.7503049215838766,-9.667873729191989
15.24,0.056744978722711274,-0.02157659507516394,0.14702425464309193,0.2764789545545937,0.8494272007593086,-9.844413942896908
15.26,0.050746074770063716,-0.021199433483363856,0.14695544825021517,0.24543419693659074,0.7483240219410562,-9.790587414552002
15.280000000000001,0.05067514202380871,-0.013988935525631019,0.15288168494979829,0.3359102431840355,0.7997775293069617,-9.887132174156937
15.3,0.048198780358780426,-0.02028876215957908,0.1405613284369978,0.2476722700493498,0.7717633919084752,-9.909028251973778
15.32,0.05159720553794618,-0.018759134734635852,0.15585771945635965,0.29024298270996307,0.8111562200068638,-9.775095952287295
15.34,0.04791108854360778,-0.017471980067608632,0.1453469955398799,0.27685345072039586,0.9129055799511496,-9.80129582518645
15.36,0.05177959088308687,-0.021976079860624043,0.1485466500266897,0.28253215403763093,0.894275222895331,-9.862389839451875
15.38,0.053079168968119275,-0.025001400156653458,0.14641382383877888,0.32811359473071544,0.7626039625395004,-9.73086110497919
15.4,0.03633408776382364,-0.019016972340506713,0.15978598915760545,0.23975324988624075,0.765356102945883,-9.747504696061807
15.42,0.05086423385990786,-0.015344793463212112,0.15296935441449525,0.2555101660637694,0.7695950241882069,-9.831925572575718
15.44,0.04331332223898376,-0.02368688061854359,0.15043069261774958,0.3053069494210475,0.7280907641237805,-9.800027453040416
15.46,0.0472533236291914,-0.016114686466425117,0.1509534161830267,0.2866990744192119,0.7572376654435488,-9.791721708054936
15.48,0.05276795895979408,-0.02877290980124273,0.151396825025181,0.32317812190165596,0.8139747915556234,-9.815663905767888
15.5,0.03967826085840571,-0.02257844842095684,0.1496242902317126,0.3690981549982557,0.7797822574212345,-9.8062128585535
15.52,0.05121552588198144,-0.01789355525857074,0.14876927277886812,0.29524987172879713,0.8344397767616777,-9.792645961041307
15.540000000000001,0.045376104503106404,-0.025287767562820872,0.15565067433284077,0.22035805702369515,0.795589702696967,-9.828233916688857
15.56,0.0449377101181873,-0.02267951614596063,0.15300013396422224,0.2588098566789525,0.830252673275792,-9.943127433822038
15.58,0.04256355563715824,-0.026539257274889497,0.14645503393359496,0.2462213477140639,0.7926294633249507,-9.793009639367881
15.6,0.0527125353338373,-0.013481786373326095,0.1536265116504955,0.33190329789612333,0.8600681505111344,-9.770267124007269
15.620000000000001,0.051143534261960805,-0.021088293617030046,0.1464386618304261,0.23829591856211124,0.8341268365310057,-9.763105881302925
15.64,0.053515438771555665,-0.020978572692452863,0.15446876932332426,0.2533636883028993,0.6920851557652568,-9.829410371065684
15.66,0.045275462393699006,-0.01588126170546545,0.15378924052358284,0.2543447003547523,0.8293494897249,-9.773503311441702
15.68,0.045821112049082666,-0.0127310945345761,0.15778197221185739,0.3160548041316801,0.7382852611984865,-9.761775203877392
15.700000000000001,0.04886946590025759,-0.0207533990617515,0.1510612538824063,0.3477140253760623,0.883526213282579,-9.85659955089746
15.72,0.049499256938144914,-0.022141604757016053,0.1449746659719492,0.3295098047138494,0.7815772527086672,-9.848732404288747
15.74,0.048575753805278614,-0.03346294023577285,0.14654661654805826,0.2792382835208369,0.8390072172447033,-9.790382287303077
15.76,0.05756579008267537,-0.02767048088918659,0.14325952496168748,0.256511897676492,0.8750627125923526,-9.835189940443618
15.780000000000001,0.049141379659017353,-0.016594526931626927,0.151921146459339,0.1605184338364247,0.8126005452319099,-9.82458780906259
15.8,0.03576905893730142,-0.022994955849045994,0.15604920810196915,0.32052811346026744,0.739296432367646,-9.826949654011763
15.82,0.050938918179157786,-0.02304628167819617,0.15017664069051367,0.40088863539211755,0.848647797235978,-9.771518346649554
15.84,0.05424817234932552,-0.015617537041729485,0.15000200998687152,0.2538142729364383,0.7451020018752844,-9.833693363535742
15.860000000000001,0.04889877786168888,-0.02502036301319613,0.14628350239505153,0.25798768730801813,0.7721401754827409,-9.759049786050616
15.88,0.04877772394982783,-0.01903325617270053,0.15066209954376303,0.31890522083366135,0.7508842949075609,-9.830208310082284
15.9,0.051471027662956824,-0.0225815741755909,0.15145524200117613,0.25436003831768705,0.8182251469382295,-9.791784795090933
15.92,0.05400655279143763,-0.013945361607281818,0.14878252035419606,0.38777103452540873,0.8170519787896782,-9.788682380301907
15.94,0.04778007059746493,-0.016612559634839805,0.14869382644174162,0.2998215632947308,0.7620767566635576,-9.821826189453255
15.96,0.053119281141092135,-0.024188983748595922,0.14518686997486824,0.3279784142204214,0.8311357110976072,-9.862965339822566
15.98,0.05623491411953251,-0.02042694543426046,0.15728110916161764,0.2825061618607042,0.8000830926831569,-9.817792382481194
16.0,0.0568765364720033,-0.025276220670150264,0.14516741119591345,0.261954923853361,0.7695244384785315,-9.800610805126103
16.02,0.049513665790199654,-0.023479723854422103,0.14543724891676507,0.29370409285203924,0.7955667281129336,-9.847480865303872
16.04,0.054042193103037914,-0.012908676161043652,0.15359899001700933,0.2559278252109811,0.8209814195993825,-9.78636012432188
16.06,0.04536478474312982,-0.0225310143634496,0.15091274256954632,0.2385612987293844,0.7934888791426196,-9.819293964502423
16.080000000000002,0.05549050874370509,-0.022540917439369333,0.14637475225472044,0.35040551352763516,0.7809261152330061,-9.775135873249077
16.1,0.04722266334815439,-0.0160588926319477,0.15992245002742464,0.2920542181982059,0.761424798860342,-9.72707668495753
16.12,0.040290798363937896,-0.020695153878559785,0.1407116029733614,0.2647998376589083,0.716831079832615,-9.734886493016168
16.14,0.0525656866861267,-0.021029402771473058,0.14054959788060584,0.27254035027758605,0.7692113128537371,-9.846284167584585
16.16,0.048542858698502285,-0.018283846000294052,0.15486943850879797,0.2959682939466457,0.7846440257728947,-9.847863720448693
16.18,0.04719830344886632,-0.026703133401053545,0.15783698027158843,0.29724909612169004,0.737737543379339,-9.770003956160949
16.2,0.049447438883928614,-0.01682627903903135,0.14662236531075235,0.3527852272620214,0.8633227525506904,-9.74768431715638
16.22,0.04128149183536205,-0.031801810494172085,0.15649965348098524,0.2160784943721418,0.8170410394306489,-9.811642406835496
16.240000000000002,0.04982091752413601,-0.01447228490818326,0.15344841619196922,0.3253023198613393,0.7773748081565925,-9.82579168570759
16.26,0.056740595900496155,-0.022645228389233486,0.14724967610508075,0.24064561288149316,0.7646712684726596,-9.816230108499443
16.28,0.04468749198136992,-0.021244294047639573,0.14505845773531711,0.26394044958037377,0.7578942594821463,-9.78040260076853
16.3,0.03988453173428466,-0.01359180891809764,0.15051444604746989,0.266425647433966,0.8655591768319553,-9.832938708770163
16.32,0.03968182755463936,-0.012117928496827475,0.15595297021035115,0.35993733820322704,0.7362237783762007,-9.807984810839404
16.34,0.05509287467702183,-0.00937418899089457,0.1519627760663279,0.33552260385404076,0.7387240744977095,-9.945947719615688
16.36,0.044326046188910936,-0.024226906410049154,0.14887170017816118,0.3225241978123133,0.8327791660155799,-9.765627362688194
16.38,0.04903272460827618,-0.019595694220141964,0.15091970433041835,0.3162427571163589,0.8343076047179545,-9.74985777530109
16.4,0.04538348130144987,-0.016497751627825255,0.1483180082042773,0.30918528407673684,0.7849549290188034,-9.82418763345991
16.42,0.04841962354053655,-0.011695749498031595,0.15571733817136876,0.35363360212975103,0.8153282205942958,-9.82263138410133
16.44,0.05182744586887889,-0.01459631305512933,0.15178435140565574,0.2612360442742378,0.7504129707998644,-9.828443112756425
16.46,0.04649605570604261,-0.020881119569930714,0.14961431538755215,0.32259450906753023,0.8744361502922381,-9.837269646981015
16.48,0.046987496628449435,-0.023363116802031143,0.14803533334465901,0.30342474841601663,0.7362331433105636,-9.780685971122928
16.5,0.04558251606919067,-0.01668846018291116,0.14787949567657568,0.24320049185692894,0.7513888089374975,-9.7844178506333
16.52,0.046208939148585565,-0.026852029910453077,0.14977568701056962,0.30492791604089325,0.8539527388315649,-9.818789613107304
16.54,0.038387560477656325,-0.01843106908537147,0.15650888262901394,0.32087431922751164,0.8420112079396616,-9.849444545220864
16.56,0.039476289622913135,-0.02786300635682197,0.15082801697660422,0.3031505904025873,0.7772699468079447,-9.77174920161334
16.580000000000002,0.04928214316501982,-0.01919483148446175,0.1531045719427866,0.2683600406048759,0.8500141282569971,-9.818818364955
16.6,0.0462467927494782,-0.02048352356411529,0.1441865406653468,0.2844855343109883,0.8191825679237273,-9.833450671631198
16.62,0.04193015387181655,-0.025734722092959756,0.1475205543376767,0.26001261299093126,0.7428880751725213,-9.854256116599624
16.64,0.04310783574021669,-0.023525267530269393,0.15679581055928432,0.4097166327613474,0.791001605938458,-9.841008119314326
16.66,0.04071451101245226,-0.02264140134334157,0.1522345487174634,0.29604864489212135,0.7937453121729996,-9.802320181528904
16.68,0.04643568377763394,-0.017259281237397776,0.14974617992596792,0.2853150691833363,0.8650831786457005,-9.824751083418924
16.7,0.05224377799573986,-0.013195157662158116,0.1461246075255988,0.29528501351643827,0.7341969742475596,-9.756667859757343
16.72,0.04828985849327663,-0.022445224349082457,0.15437285731608805,0.36333811247824893,0.8310561209092377,-9.810269244128792
16.740000000000002,0.03870025527350331,-0.01512326262926961,0.15586936536403526,0.24351692496968533,0.7963875827627087,-9.74915317882428
16.76,0.03869340839221051,-0.02539790549271559,0.15989371794288393,0.2890858976606184,0.7266178032347725,-9.804122629543837
16.78,0.05177364764877601,-0.023260800147137585,0.14303674372604325,0.3371454914922278,0.8681765898819237,-9.828186330420197
16.8,0.03934589116626099,-0.016008957290712406,0.15295454309959117,0.31455882779491756,0.8197488353287372,-9.837351078098575
16.82,0.03050472471954617,-0.018515956392120374,0.15150558781204498,0.3977724584696831,0.6848128449112194,-9.880365417212113
16.84,0.04145994608512248,-0.025763571460183213,0.14689083507287323,0.26431767379345605,0.8249929739372158,-9.79275259365783
16.86,0.04505286361894997,-0.015210370586093664,0.15730424563982467,0.30737746705276636,0.8002930212512186,-9.832997502893297
16.88,0.04354042952765221,-0.021465238839850187,0.14722066782103618,0.29999351743324554,0.735283322126938,-9.828816767422962
16.9,0.03425857314563665,-0.015113944251092293,0.14705480886254194,0.2774577439868267,0.8695419992574192,-9.82634392505755
16.92,0.03905336716538514,-0.02640226440841599,0.15088749879132085,0.2660335220435064,0.7504778303883032,-9.8484793609734
16.94,0.0355556107532645,-0.01531622275641043,0.15653848638132925,0.3575146614743112,0.7872547647386255,-9.828351555993388
16.96,0.03925403587788362,-0.020611572011314826,0.15365098387376117,0.27447513370559334,0.8474448366947303,-9.748390726723388
16.98,0.04355899302396494,-0.019214516690865303,0.14615072122320788,0.3801460858393295,0.7853237350938781,-9.801284506950779
17.0,0.03681179178067867,-0.015246596374520168,0.14059041274489464,0.291615286692158,0.7081607884226434,-9.853165576314687
17.02,0.03497046305437523,-0.018147182335602478,0.1476363796476686,0.2604926103587198,0.7897956503678767,-9.725549134045629
17.04,0.039130853630871695,-0.02455862600880241,0.14939346018033148,0.2882950946672224,0.7475012391912017,-9.767886959327207
17.06,0.04003260982339931,-0.019756929675603344,0.15681065021042404,0.3609108216778959,0.7864617531398888,-9.855728472297633
17.080000000000002,0.03823500667622551,-0.016836327726545492,0.14943127636137304,0.4205590656940768,0.7212379495288577,-9.861268342284365
17.1,0.037261286247557264,-0.015988805735655587,0.15467885790818373,0.3396657447832784,0.715678230264052,-9.81199283757673
17.12,0.03744547525037222,-0.01935950899915508,0.1558905964749323,0.3665308143077767,0.7099773498533968,-9.817229644810752
17.14,0.03995280500608124,-0.016771730998465136,0.1436604180118195,0.23279740814380911,0.7447181119203037,-9.721507545148246
17.16,0.040860778858396424,-0.013920408212826939,0.1489923116202974,0.2407597505746755,0.8233565962297555,-9.830812129435392
17.18,0.03022393281732411,-0.01983570690738068,0.14799301794389955,0.26327841851374023,0.735034488427984,-9.762152276746978
17.2,0.03673898704042438,-0.022468573815140568,0.15182399959011678,0.22077661155022044,0.8727217861457726,-9.782514944633682
17.22,0.03287414160703689,-0.02213969152181015,0.14663536244843606,0.24668306288824146,0.806329699863518,-9.843652167838732
17.240000000000002,0.03775358741539344,-0.02185602139735906,0.15928876261323424,0.25030574324926214,0.7716367263083892,-9.882009510380744
17.26,0.03480745851682649,-0.0013230621865541296,0.1503997570496669,0.317977235883737,0.7302817557321913,-9.876439106020024
17.28,0.03859679241428417,-0.015752344799524826,0.14354272090138182,0.3085597954029086,0.7965863930668707,-9.7533001915667
17.3,0.02992212455187411,-0.02098624161349329,0.14768630710796923,0.32319992486017124,0.8139171054033331,-9.79014429849387
17.32,0.026669818803410225,-0.021296605924060016,0.14489964243155767,0.28652424582965164,0.8120834519273126,-9.862981699669897
17.34,0.03572914929682634,-0.026002078862971817,0.14423401822728035,0.35857075543118366,0.7838489425450889,-9.832540356456501
17.36,0.03250733684023728,-0.02309206940327803,0.15606785761754952,0.20165873410040813,0.788050587164199,-9.869377991880329
17.38,0.041862399918613034,-0.0190594524493598,0.15382296309436785,0.2413816953035785,0.6952786270059763,-9.712900343986641
17.400000000000002,0.04008802086034262,-0.021200753294105642,0.15001844235309647,0.2314431304376266,0.8539551822065069,-9.768631832377206
17.42,0.02778877745445928,-0.020560904662338772,0.14041456730789595,0.31352662469024034,0.7981566986753342,-9.807482196440395
17.44,0.03176440450769507,-0.01745197341946111,0.14273932437329412,0.2810607925167688,0.8153680577974349,-9.883881666298484
17.46,0.03317651936858644,-0.02354823447090482,0.15408511894404892,0.3062334513793202,0.7601402422183179,-9.848142368519424
17.48,0.027240816802165377,-0.015541170624900397,0.14794469570684063,0.340407341865477,0.8360668670064452,-9.766025325461163
17.5,0.02410358978882714,-0.023199335006324727,0.14662483406492036,0.2591229205170441,0.7028875906795122,-9.784092344249558
17.52,0.03251801776537519,-0.016141411059806227,0.14105229401086125,0.2347765476114479,0.8119294043312928,-9.768674893491303
17.54,0.03653925358063641,-0.013789562385727157,0.14671531392671136,0.3338579145879196,0.8081126252568944,-9.792173817299513
17.56,0.028410101725990566,-0.01793844637570449,0.15274297852409155,0.3296171966898586,0.8570743724699319,-9.892884798983074
17.580000000000002,0.032743130660669986,-0.02226298754749654,0.15370315039439897,0.27165887398487254,0.7986052635509505,-9.914937275438781
17.6,0.029078823353200205,-0.014127770659428673,0.14554979721106104,0.2282077698702321,0.6885825433051714,-9.886308998510696
17.62,0.02545709389288503,-0.015153963840369461,0.1502705467609509,0.16920326587286677,0.7026847021962912,-9.807284251508815
17.64,0.02906947762641054,-0.01412624831550718,0.1479482901797296,0.35082867403622864,0.7701811043437098,-9.777194616650622
17.66,0.03456781303010264,-0.01604572085556926,0.14302971366148898,0.2270962767713493,0.7777914621719134,-9.810358449899434
17.68,0.025770880207174173,-0.019390329406000988,0.15621389278912326,0.306676424388218,0.8270414405457729,-9.7955789856381
17.7,0.029207575009267316,-0.0144177298315915,0.1514211010395159,0.2249597915787187,0.8071401166596961,-9.84589270455855
17.72,0.0229247338339634,-0.010317625940949636,0.15656994345788927,0.2762191742513752,0.7299991814952209,-9.854328371365481
17.740000000000002,0.029138042035538277,-0.008305318493945342,0.14600838294218027,0.35283639484772333,0.7216759499996904,-9.8826141035595
17.76,0.02342344287839652,-0.013736081179226128,0.15110918662281572,0.29885179092405284,0.8021254293763275,-9.847374595996044
17.78,0.026935442987268472,-0.004597493405857675,0.15920153416733426,0.2850216914785772,0.8012316847314438,-9.82015217221534
17.8,0.025745965461067877,-0.0214107722806388,0.1506403228002787,0.22933896169086843,0.7591362243907036,-9.770944903958876
17.82,0.027535934361103184,-0.011937665317909796,0.15122095741135685,0.37107177665270386,0.8463487227261975,-9.918176172983344
17.84,0.02350082614033405,-0.013058612625199587,0.1507374918502485,0.2702103821282482,0.7881412807305619,-9.816621605281222
17.86,0.025102083990452214,-0.01997040980762298,0.14414396183861836,0.28478631542098204,0.7800389225231363,-9.794440605440439
17.88,0.02959922488759591,-0.02274702814813504,0.15603859990323604,0.24094717877202307,0.7579572054044932,-9.77161139419005
17.900000000000002,0.02762305374670146,-0.016394608213435115,0.15159797114318346,0.27706132875581296,0.8438523663362412,-9.784655938860654
17.92,0.017467387789693607,-0.019222278457955152,0.1484649910957595,0.2408515066348621,0.7962021907036532,-9.84758150682114
17.94,0.017452091410660422,-0.016697213679777546,0.14525207540248541,0.30096986101657597,0.7729226301631671,-9.871200434316897
17.96,0.024525805599115207,-0.02596132148849684,0.14719612274517324,0.30809906117080055,0.7348852311409337,-9.797358225795135
17.98,0.021497170186599062,-0.012279297546490979,0.1500061082216199,0.2741552901478811,0.834318395940068,-9.779227144296124
18.0,0.023565151795533753,-0.015109348889283959,0.1462328890165444,0.3420090365713547,0.7896331019776521,-9.767973561161217
18.02,0.01977550777225826,-0.02285599997085393,0.15658620176146745,0.2551636593416291,0.916671696440762,-9.71982458169068
18.04,0.018844076624282297,-0.02710711027212102,0.13898395563146937,0.3477694318519422,0.8249296694241501,-9.839073831669788
18.06,0.02398614384201633,-0.01596955213104501,0.14973333194090135,0.2897805875844739,0.7649066520866837,-9.776516219369778
18.080000000000002,0.011931609789278746,-0.01345105726429223,0.15089902042545544,0.3099810281020001,0.8197350821034123,-9.910501834850157
18.1,0.024361872424569747,-0.013641262831458452,0.14274892927113828,0.3601692912949983,0.7685601779908968,-9.812449031223421
18.12,0.008916183856534766,-0.016514114736837362,0.1521008633156921,0.2751965009334645,0.8420068763877155,-9.749216938806889
